Time,Ax,Ay,Az,Sx,Sy,Sz,x,y,z
1762170533.6500287,11.0,2.0,-1021.0,0,0,0,0.0,0.0,1.0
1762170533.7604585,18.0,12.0,-1016.0,0,0,0,0.0,0.0,1.0
1762170533.8621464,-5.0,2.0,-992.0,0,0,0,0.0,0.0,1.0
1762170533.9639955,9.0,-12.0,-1001.0,0,0,0,0.0,0.0,1.0
1762170534.0765421,0.0,-39.0,-1006.0,0,0,0,0.0,0.0,1.0
1762170534.1920989,-3.0,-26.0,-949.0,0,0,0,0.0,0.0,1.0
1762170534.293661,-7.0,-21.0,-995.0,0,0,0,0.0,0.0,1.0
1762170534.394125,4.0,-18.0,-1017.0,0,0,0,0.0,0.0,1.0
1762170534.5104113,18.0,16.0,-988.0,0,0,0,0.0,0.0,1.0
1762170534.6257255,9.0,-10.0,-980.0,0,0,0,0.0,0.0,1.0
1762170534.7414443,12.0,-9.0,-954.0,0,0,0,0.0,0.0,1.0
1762170534.843738,14.0,-25.0,-1008.0,0,0,0,0.0,0.0,1.0
1762170534.9451268,-12.0,-16.0,-1003.0,0,0,0,0.0,0.0,1.0
1762170535.0601828,1.0,-12.0,-1071.0,0,0,0,0.0,0.0,1.0
1762170535.1756532,6.0,8.0,-1014.0,0,0,0,0.0,0.0,1.0
1762170535.2912257,6.0,8.0,-1014.0,0,0,0,0.0,0.0,1.0
1762170535.4065087,6.0,0.0,-990.0,0,0,0,0.0,0.0,1.0
1762170535.5080373,-7.0,8.0,-1008.0,0,0,0,0.0,0.0,1.0
1762170535.60967,9.0,-1.0,-1023.0,0,0,0,0.0,0.0,1.0
1762170535.7102358,0.0,5.0,-1023.0,0,0,0,0.0,0.0,1.0
1762170535.8253503,12.0,27.0,-1020.0,0,0,0,0.0,0.0,1.0
1762170535.9260206,12.0,27.0,-1020.0,0,0,0,0.0,0.0,1.0
1762170536.0273843,0.0,12.0,-997.0,-1,0,0,-0.1013636589050293,0.0,1.0
1762170536.1429508,-16.0,-50.0,-962.0,-1,0,0,-0.21693015098571777,0.0,1.0
1762170536.2458823,-14.0,19.0,-1019.0,-1,0,0,-0.31986165046691895,0.0,1.0
1762170536.3599942,-4.0,27.0,-993.0,-1,0,0,-0.4339735507965088,0.0,1.0
1762170536.4747648,-15.0,-37.0,-926.0,-1,0,0,-0.5487442016601562,0.0,1.0
1762170536.5756965,-15.0,-37.0,-926.0,-1,0,0,-0.6496758460998535,0.0,1.0
1762170536.6913397,-16.0,-33.0,-1017.0,-1,0,0,-0.7653191089630127,0.0,1.0
1762170536.792776,2.0,17.0,-1015.0,-1,0,0,-0.866755485534668,0.0,1.0
1762170536.9093592,-7.0,-45.0,-983.0,-1,0,0,-0.9833385944366455,0.0,1.0
1762170537.0106783,4.0,-22.0,-997.0,0,0,0,-0.9833385944366455,0.0,1.0
1762170537.125934,-9.0,-23.0,-992.0,0,0,0,-0.9833385944366455,0.0,1.0
1762170537.2283065,16.0,-39.0,-1004.0,0,0,0,-0.9833385944366455,0.0,1.0
1762170537.328628,-6.0,5.0,-1019.0,0,0,0,-0.9833385944366455,0.0,1.0
1762170537.429059,-13.0,12.0,-997.0,0,0,0,-0.9833385944366455,0.0,1.0
1762170537.5438323,2.0,-34.0,-981.0,0,0,0,-0.9833385944366455,0.0,1.0
1762170537.64485,0.0,-28.0,-1000.0,0,0,0,-0.9833385944366455,0.0,1.0
1762170537.7605267,-2.0,4.0,-1003.0,0,0,0,-0.9833385944366455,0.0,1.0
1762170537.8752685,-12.0,-8.0,-1003.0,0,0,0,-0.9833385944366455,0.0,1.0
1762170537.9766698,0.0,-9.0,-999.0,0,0,0,-0.9833385944366455,0.0,1.0
1762170538.0922852,-11.0,2.0,-996.0,0,0,0,-0.9833385944366455,0.0,1.0
1762170538.1935294,-11.0,2.0,-996.0,0,0,0,-0.9833385944366455,0.0,1.0
1762170538.3082418,-19.0,-1.0,-1034.0,0,0,0,-0.9833385944366455,0.0,1.0
1762170538.4097931,-19.0,-1.0,-1034.0,0,0,0,-0.9833385944366455,0.0,1.0
1762170538.5102208,-4.0,-4.0,-987.0,0,0,0,-0.9833385944366455,0.0,1.0
1762170538.6258113,-5.0,6.0,-995.0,0,0,0,-0.9833385944366455,0.0,1.0
1762170538.7283585,-8.0,-2.0,-1005.0,0,0,0,-0.9833385944366455,0.0,1.0
1762170538.8290155,-34.0,-18.0,-1020.0,0,0,0,-0.9833385944366455,0.0,1.0
1762170538.9441373,-10.0,17.0,-977.0,0,0,0,-0.9833385944366455,0.0,1.0
1762170539.0453408,-9.0,-40.0,-1006.0,0,0,0,-0.9833385944366455,0.0,1.0
1762170539.1467752,-9.0,-40.0,-1006.0,0,0,0,-0.9833385944366455,0.0,1.0
1762170539.2602558,-14.0,-43.0,-1015.0,0,0,0,-0.9833385944366455,0.0,1.0
1762170539.3754852,-18.0,-26.0,-1040.0,0,0,0,-0.9833385944366455,0.0,1.0
1762170539.482615,-18.0,-26.0,-1040.0,0,0,0,-0.9833385944366455,0.0,1.0
1762170539.592257,-2.0,18.0,-1019.0,0,0,0,-0.9833385944366455,0.0,1.0
1762170539.6939268,-11.0,-2.0,-1016.0,0,0,0,-0.9833385944366455,0.0,1.0
1762170539.8090734,-12.0,-58.0,-1033.0,0,0,0,-0.9833385944366455,0.0,1.0
1762170539.9096794,6.0,2.0,-998.0,0,0,0,-0.9833385944366455,0.0,1.0
1762170540.0262847,8.0,-49.0,-1009.0,0,0,0,-0.9833385944366455,0.0,1.0
1762170540.143042,3.0,-38.0,-957.0,0,0,0,-0.9833385944366455,0.0,1.0
1762170540.245473,1.0,16.0,-1003.0,0,0,0,-0.9833385944366455,0.0,1.0
1762170540.3605685,12.0,-36.0,-976.0,0,0,0,-0.9833385944366455,0.0,1.0
1762170540.4755125,0.0,6.0,-1024.0,0,0,0,-0.9833385944366455,0.0,1.0
1762170540.5771542,-22.0,-39.0,-990.0,0,0,0,-0.9833385944366455,0.0,1.0
1762170540.6917148,-2.0,-29.0,-975.0,0,-1,0,-0.9833385944366455,-0.11456060409545898,1.0
1762170540.7927825,1.0,-2.0,-1026.0,0,-1,0,-0.9833385944366455,-0.21562838554382324,1.0
1762170540.8936143,-7.0,-2.0,-1039.0,0,-1,0,-0.9833385944366455,-0.31646013259887695,1.0
1762170541.007664,-15.0,-30.0,-976.0,0,-1,0,-0.9833385944366455,-0.4305098056793213,1.0
1762170541.1095474,8.0,-6.0,-1045.0,0,-1,0,-0.9833385944366455,-0.532393217086792,1.0
1762170541.2265167,0.0,-17.0,-1012.0,-1,-1,0,-1.1003079414367676,-0.6493625640869141,1.0
1762170541.3278685,-16.0,-56.0,-1008.0,-1,-1,0,-1.2016596794128418,-0.7507143020629883,1.0
1762170541.4285302,-10.0,1.0,-973.0,-1,-1,0,-1.302321434020996,-0.8513760566711426,1.0
1762170541.5287764,-9.0,7.0,-1011.0,-2,-1,0,-1.5028138160705566,-0.9516222476959229,1.0
1762170541.643864,-9.0,7.0,-1011.0,-2,-1,0,-1.7329888343811035,-1.0667097568511963,1.0
1762170541.744767,-20.0,-1.0,-988.0,-2,-1,0,-1.9347949028015137,-1.1676127910614014,1.0
1762170541.8449993,-17.0,13.0,-1010.0,-2,-1,0,-2.1352596282958984,-1.2678451538085938,1.0
1762170541.9459383,-17.0,7.0,-1001.0,-2,-1,0,-2.3371376991271973,-1.3687841892242432,1.0
1762170542.0614004,-19.0,-24.0,-978.0,-2,-1,0,-2.5680618286132812,-1.4842462539672852,1.0
1762170542.1756027,-9.0,23.0,-977.0,-2,-1,0,-2.79646635055542,-1.5984485149383545,1.0
1762170542.2765794,-13.0,-15.0,-991.0,-2,-1,0,-2.998419761657715,-1.699425220489502,1.0
1762170542.3774428,-23.0,-26.0,-1003.0,-2,-1,0,-3.2001466751098633,-1.8002886772155762,1.0
1762170542.4919019,-26.0,-37.0,-1037.0,-2,-1,0,-3.4290647506713867,-1.914747714996338,1.0
1762170542.5959954,-28.0,-38.0,-1010.0,-2,-1,0,-3.637251853942871,-2.01884126663208,1.0
1762170542.709529,-12.0,-50.0,-983.0,-2,-1,0,-3.86431884765625,-2.1323747634887695,1.0
1762170542.8101335,-32.0,-14.0,-1011.0,-2,-1,0,-4.06552791595459,-2.2329792976379395,1.0
1762170542.9107013,-19.0,9.0,-991.0,-2,-2,0,-4.266663551330566,-2.434114933013916,1.0
1762170543.0111353,-16.0,-63.0,-958.0,-2,-2,0,-4.467531681060791,-2.6349830627441406,1.0
1762170543.1254797,-23.0,3.0,-1000.0,-3,-3,0,-4.810564756393433,-2.9780161380767822,1.0
1762170543.2443368,-5.0,-38.0,-1022.0,-3,-3,0,-5.167136192321777,-3.334587574005127,1.0
1762170543.359311,-33.0,-26.0,-1003.0,-3,-3,0,-5.512058973312378,-3.6795103549957275,1.0
1762170543.4604206,-33.0,-26.0,-1003.0,-3,-3,0,-5.815387487411499,-3.9828388690948486,1.0
1762170543.5620759,-10.0,-45.0,-979.0,-2,-2,0,-6.01869797706604,-4.18614935874939,1.0
1762170543.6769876,-13.0,7.0,-1036.0,-1,-2,0,-6.133609771728516,-4.415972948074341,1.0
1762170543.7789674,-6.0,-39.0,-964.0,-1,-2,0,-6.235589504241943,-4.619932413101196,1.0
1762170543.8962104,-24.0,-22.0,-1021.0,-1,-2,0,-6.352832555770874,-4.854418516159058,1.0
1762170544.0059524,-22.0,-47.0,-985.0,-1,-2,0,-6.462574481964111,-5.073902368545532,1.0
1762170544.1112878,-7.0,-3.0,-1047.0,-1,-1,0,-6.5679099559783936,-5.1792378425598145,1.0
1762170544.2264016,-11.0,2.0,-995.0,0,-1,0,-6.5679099559783936,-5.294351577758789,1.0
1762170544.341698,-7.0,17.0,-1028.0,0,-1,0,-6.5679099559783936,-5.4096479415893555,1.0
1762170544.4602084,-22.0,15.0,-1000.0,0,-1,0,-6.5679099559783936,-5.52815842628479,1.0
1762170544.561337,-22.0,15.0,-1000.0,0,-1,0,-6.5679099559783936,-5.629287004470825,1.0
1762170544.6633675,-4.0,-40.0,-1009.0,0,-1,0,-6.5679099559783936,-5.731317520141602,1.0
1762170544.7773626,-5.0,-23.0,-990.0,0,-1,0,-6.5679099559783936,-5.845312595367432,1.0
1762170544.87844,-8.0,-2.0,-983.0,0,-1,0,-6.5679099559783936,-5.94638991355896,1.0
1762170544.982131,-4.0,7.0,-1011.0,0,-1,0,-6.5679099559783936,-6.050081014633179,1.0
1762170545.0936496,-18.0,-45.0,-992.0,0,-1,0,-6.5679099559783936,-6.161599636077881,1.0
1762170545.2089164,-8.0,16.0,-961.0,0,-2,0,-6.5679099559783936,-6.3921332359313965,1.0
1762170545.3107288,-5.0,-13.0,-1003.0,0,-2,0,-6.5679099559783936,-6.595757961273193,1.0
1762170545.4245925,-14.0,-6.0,-1038.0,0,-2,0,-6.5679099559783936,-6.823485374450684,1.0
1762170545.5435288,-9.0,-47.0,-962.0,0,-2,0,-6.5679099559783936,-7.0613579750061035,1.0
1762170545.659103,0.0,-6.0,-989.0,0,-2,0,-6.5679099559783936,-7.292506217956543,1.0
1762170545.7608964,5.0,-19.0,-968.0,0,-2,0,-6.5679099559783936,-7.496093273162842,1.0
1762170545.8616586,-25.0,-43.0,-999.0,0,-2,0,-6.5679099559783936,-7.697617530822754,1.0
1762170545.9622145,-24.0,-17.0,-1014.0,0,-2,0,-6.5679099559783936,-7.89872932434082,1.0
1762170546.0631151,-17.0,-5.0,-1005.0,0,-2,0,-6.5679099559783936,-8.100530624389648,1.0
1762170546.177888,-1.0,8.0,-977.0,0,-1,0,-6.5679099559783936,-8.215303421020508,1.0
1762170546.293785,-15.0,-47.0,-996.0,0,-2,0,-6.5679099559783936,-8.447097778320312,1.0
1762170546.4097815,-23.0,-52.0,-964.0,0,-1,0,-6.5679099559783936,-8.563094139099121,1.0
1762170546.5250099,-10.0,-26.0,-1017.0,0,-1,0,-6.5679099559783936,-8.678322553634644,1.0
1762170546.626394,-14.0,0.0,-1035.0,0,-1,0,-6.5679099559783936,-8.779706716537476,1.0
1762170546.7271872,-24.0,-51.0,-976.0,0,-1,0,-6.5679099559783936,-8.880499839782715,1.0
1762170546.8439941,-12.0,-43.0,-1022.0,0,-1,0,-6.5679099559783936,-8.997306823730469,1.0
1762170546.9601617,-3.0,-47.0,-982.0,0,-1,0,-6.5679099559783936,-9.113474369049072,1.0
1762170547.0763655,-3.0,-47.0,-982.0,0,-1,0,-6.5679099559783936,-9.2296781539917,1.0
1762170547.1782825,-32.0,4.0,-980.0,0,-1,0,-6.5679099559783936,-9.331595182418823,1.0
1762170547.2789962,-11.0,-40.0,-979.0,0,-1,0,-6.5679099559783936,-9.432308912277222,1.0
1762170547.394005,-5.0,-25.0,-1028.0,0,-1,0,-6.5679099559783936,-9.547317743301392,1.0
1762170547.4958286,-3.0,-37.0,-993.0,0,-1,0,-6.5679099559783936,-9.649141311645508,1.0
1762170547.6106784,-4.0,6.0,-1027.0,0,-1,0,-6.5679099559783936,-9.763991117477417,1.0
1762170547.7260613,-1.0,-17.0,-980.0,0,-1,0,-6.5679099559783936,-9.879374027252197,1.0
1762170547.8266482,5.0,-14.0,-1003.0,0,-1,0,-6.5679099559783936,-9.979960918426514,1.0
1762170547.9421287,-4.0,-34.0,-1039.0,0,-1,0,-6.5679099559783936,-10.095441341400146,1.0
1762170548.0425756,-23.0,-10.0,-971.0,0,-1,0,-6.5679099559783936,-10.19588828086853,1.0
1762170548.1607175,-1.0,-4.0,-1002.0,0,-1,0,-6.5679099559783936,-10.314030170440674,1.0
1762170548.2761168,-9.0,-29.0,-997.0,0,-1,0,-6.5679099559783936,-10.429429531097412,1.0
1762170548.3768024,-31.0,-4.0,-1014.0,0,-1,0,-6.5679099559783936,-10.530115127563477,1.0
1762170548.478283,-5.0,-15.0,-1005.0,0,-1,0,-6.5679099559783936,-10.631595611572266,1.0
1762170548.5785973,-1.0,-23.0,-1011.0,0,-1,0,-6.5679099559783936,-10.731909990310669,1.0
1762170548.6794515,-22.0,7.0,-1003.0,0,-1,0,-6.5679099559783936,-10.832764148712158,1.0
1762170548.7938585,-4.0,-13.0,-1011.0,0,-1,0,-6.5679099559783936,-10.947171211242676,1.0
1762170548.8948421,-1.0,-14.0,-999.0,0,-1,0,-6.5679099559783936,-11.048154830932617,1.0
1762170549.010551,4.0,-24.0,-970.0,0,-1,0,-6.5679099559783936,-11.16386365890503,1.0
1762170549.125501,-1.0,-11.0,-951.0,0,-1,0,-6.5679099559783936,-11.278813600540161,1.0
1762170549.2262092,-3.0,-34.0,-974.0,0,-1,0,-6.5679099559783936,-11.37952184677124,1.0
1762170549.3271806,7.0,-1.0,-1010.0,0,-1,0,-6.5679099559783936,-11.480493307113647,1.0
1762170549.4430447,-8.0,14.0,-990.0,0,-1,0,-6.5679099559783936,-11.596357345581055,1.0
1762170549.5603015,-18.0,-28.0,-1002.0,0,-1,0,-6.5679099559783936,-11.713614225387573,1.0
1762170549.6759987,-22.0,-48.0,-1029.0,0,-1,0,-6.5679099559783936,-11.82931137084961,1.0
1762170549.7780247,-22.0,-48.0,-1029.0,0,-1,0,-6.5679099559783936,-11.931337356567383,1.0
1762170549.878954,-2.0,-25.0,-978.0,0,-1,0,-6.5679099559783936,-12.032266616821289,1.0
1762170549.980052,-25.0,-7.0,-989.0,0,-1,0,-6.5679099559783936,-12.1333646774292,1.0
1762170550.0944905,-16.0,-14.0,-991.0,0,-1,0,-6.5679099559783936,-12.247803211212158,1.0
1762170550.1987655,-30.0,-7.0,-1029.0,0,-1,0,-6.5679099559783936,-12.352078199386597,1.0
1762170550.311448,-30.0,-7.0,-1029.0,0,-1,0,-6.5679099559783936,-12.464760780334473,1.0
1762170550.4270563,1.0,-35.0,-988.0,0,-1,0,-6.5679099559783936,-12.580368995666504,1.0
1762170550.54155,-23.0,11.0,-985.0,0,-1,0,-6.5679099559783936,-12.694862604141235,1.0
1762170550.66047,-12.0,-18.0,-1006.0,0,-1,0,-6.5679099559783936,-12.813782691955566,1.0
1762170550.7759387,-21.0,-33.0,-1008.0,0,0,0,-6.5679099559783936,-12.813782691955566,1.0
1762170550.876512,-23.0,0.0,-1036.0,0,0,0,-6.5679099559783936,-12.813782691955566,1.0
1762170550.9771748,-15.0,2.0,-998.0,0,0,0,-6.5679099559783936,-12.813782691955566,1.0
1762170551.0783958,-15.0,2.0,-998.0,0,0,0,-6.5679099559783936,-12.813782691955566,1.0
1762170551.1979885,-6.0,5.0,-1038.0,0,0,0,-6.5679099559783936,-12.813782691955566,1.0
1762170551.310286,25.0,-2.0,-1017.0,0,0,0,-6.5679099559783936,-12.813782691955566,1.0
1762170551.4263828,-21.0,-44.0,-986.0,0,0,0,-6.5679099559783936,-12.813782691955566,1.0
1762170551.5426822,5.0,-35.0,-1007.0,0,0,0,-6.5679099559783936,-12.813782691955566,1.0
1762170551.6597207,-17.0,-14.0,-1012.0,0,0,0,-6.5679099559783936,-12.813782691955566,1.0
1762170551.7759678,-3.0,-3.0,-965.0,0,-1,0,-6.5679099559783936,-12.93002986907959,1.0
1762170551.877883,3.0,8.0,-1009.0,0,-1,0,-6.5679099559783936,-13.031944990158081,1.0
1762170551.978342,-4.0,10.0,-985.0,0,-1,0,-6.5679099559783936,-13.132404088973999,1.0
1762170552.0937839,1.0,16.0,-991.0,0,-1,0,-6.5679099559783936,-13.247845888137817,1.0
1762170552.2092538,-2.0,-41.0,-982.0,0,-1,0,-6.5679099559783936,-13.36331582069397,1.0
1762170552.3253856,-11.0,-1.0,-1033.0,0,-1,0,-6.5679099559783936,-13.479447603225708,1.0
1762170552.444314,-11.0,-18.0,-1026.0,0,-1,0,-6.5679099559783936,-13.598376035690308,1.0
1762170552.559406,-18.0,-6.0,-1003.0,0,-1,0,-6.5679099559783936,-13.713468074798584,1.0
1762170552.660096,-4.0,-13.0,-993.0,0,-1,0,-6.5679099559783936,-13.814157962799072,1.0
1762170552.762365,6.0,8.0,-984.0,0,-1,0,-6.5679099559783936,-13.91642713546753,1.0
1762170552.8626041,-20.0,-14.0,-1022.0,0,-1,0,-6.5679099559783936,-14.016666173934937,1.0
1762170552.9629056,-20.0,0.0,-1023.0,0,-1,0,-6.5679099559783936,-14.116967678070068,1.0
1762170553.0751483,-15.0,-2.0,-1015.0,0,-1,0,-6.5679099559783936,-14.229210376739502,1.0
1762170553.1772568,-6.0,-1.0,-1004.0,0,-1,0,-6.5679099559783936,-14.331318855285645,1.0
1762170553.2788618,-31.0,-10.0,-1019.0,0,-1,0,-6.5679099559783936,-14.432923793792725,1.0
1762170553.379568,-15.0,-3.0,-1018.0,0,0,0,-6.5679099559783936,-14.432923793792725,1.0
1762170553.4941335,-13.0,-23.0,-988.0,0,0,0,-6.5679099559783936,-14.432923793792725,1.0
1762170553.6086257,-19.0,-10.0,-1005.0,0,0,0,-6.5679099559783936,-14.432923793792725,1.0
1762170553.7097452,-14.0,-31.0,-1021.0,0,0,0,-6.5679099559783936,-14.432923793792725,1.0
1762170553.8105216,-28.0,-23.0,-1020.0,0,0,0,-6.5679099559783936,-14.432923793792725,1.0
1762170553.9257507,-20.0,-7.0,-964.0,0,0,0,-6.5679099559783936,-14.432923793792725,1.0
1762170554.0439596,-25.0,-4.0,-985.0,0,0,0,-6.5679099559783936,-14.432923793792725,1.0
1762170554.158585,11.0,10.0,-967.0,0,0,0,-6.5679099559783936,-14.432923793792725,1.0
1762170554.2606015,-4.0,3.0,-1001.0,0,0,0,-6.5679099559783936,-14.432923793792725,1.0
1762170554.3618863,3.0,-7.0,-1008.0,0,0,0,-6.5679099559783936,-14.432923793792725,1.0
1762170554.462154,-16.0,-45.0,-1003.0,0,0,0,-6.5679099559783936,-14.432923793792725,1.0
1762170554.5625427,0.0,-42.0,-972.0,0,0,0,-6.5679099559783936,-14.432923793792725,1.0
1762170554.66299,-19.0,0.0,-1005.0,0,-1,0,-6.5679099559783936,-14.533371210098267,1.0
1762170554.7634125,-23.0,-37.0,-964.0,0,-1,0,-6.5679099559783936,-14.633793592453003,1.0
1762170554.8771892,-9.0,-5.0,-1003.0,0,-1,0,-6.5679099559783936,-14.747570276260376,1.0
1762170554.977773,-5.0,-13.0,-1000.0,0,-1,0,-6.5679099559783936,-14.848154067993164,1.0
1762170555.0786896,-3.0,-24.0,-1004.0,0,-1,0,-6.5679099559783936,-14.949070692062378,1.0
1762170555.19381,-22.0,6.0,-1008.0,0,-1,0,-6.5679099559783936,-15.064191102981567,1.0
1762170555.2950256,-27.0,-13.0,-980.0,0,-1,0,-6.5679099559783936,-15.165406703948975,1.0
1762170555.408793,-28.0,-14.0,-982.0,0,-1,0,-6.5679099559783936,-15.279174089431763,1.0
1762170555.5110412,9.0,-28.0,-958.0,0,0,0,-6.5679099559783936,-15.279174089431763,1.0
1762170555.624871,-8.0,-15.0,-1041.0,0,0,0,-6.5679099559783936,-15.279174089431763,1.0
1762170555.7437317,-5.0,30.0,-1007.0,0,0,0,-6.5679099559783936,-15.279174089431763,1.0
1762170555.8598917,-28.0,-14.0,-1012.0,0,0,0,-6.5679099559783936,-15.279174089431763,1.0
1762170555.9620497,-8.0,-10.0,-988.0,0,0,0,-6.5679099559783936,-15.279174089431763,1.0
1762170556.0781662,-20.0,-10.0,-1014.0,0,0,0,-6.5679099559783936,-15.279174089431763,1.0
1762170556.1783464,-5.0,-8.0,-1001.0,0,0,0,-6.5679099559783936,-15.279174089431763,1.0
1762170556.2785382,6.0,-11.0,-1011.0,0,0,0,-6.5679099559783936,-15.279174089431763,1.0
1762170556.38127,-20.0,-6.0,-1002.0,0,0,0,-6.5679099559783936,-15.279174089431763,1.0
1762170556.4941657,-21.0,-16.0,-995.0,0,0,0,-6.5679099559783936,-15.279174089431763,1.0
1762170556.6092734,-18.0,-4.0,-1004.0,0,0,0,-6.5679099559783936,-15.279174089431763,1.0
1762170556.710416,-25.0,-15.0,-994.0,0,0,0,-6.5679099559783936,-15.279174089431763,1.0
1762170556.8109133,-21.0,-19.0,-987.0,0,0,0,-6.5679099559783936,-15.279174089431763,1.0
1762170556.9246783,-4.0,-19.0,-1001.0,0,0,0,-6.5679099559783936,-15.279174089431763,1.0
1762170557.02508,-21.0,-2.0,-998.0,0,0,0,-6.5679099559783936,-15.279174089431763,1.0
1762170557.1263535,-22.0,13.0,-967.0,0,0,0,-6.5679099559783936,-15.279174089431763,1.0
1762170557.2275794,-17.0,-7.0,-1000.0,0,0,0,-6.5679099559783936,-15.279174089431763,1.0
1762170557.3435917,-1.0,-11.0,-978.0,0,0,0,-6.5679099559783936,-15.279174089431763,1.0
1762170557.4448102,-7.0,-8.0,-988.0,0,0,0,-6.5679099559783936,-15.279174089431763,1.0
1762170557.559739,-9.0,-24.0,-1019.0,0,0,0,-6.5679099559783936,-15.279174089431763,1.0
1762170557.661987,-15.0,0.0,-981.0,0,0,0,-6.5679099559783936,-15.279174089431763,1.0
1762170557.7781212,-28.0,-17.0,-1001.0,0,0,0,-6.5679099559783936,-15.279174089431763,1.0
1762170557.8937182,-18.0,-1.0,-1020.0,0,0,0,-6.5679099559783936,-15.279174089431763,1.0
1762170558.0090582,-12.0,-18.0,-996.0,0,0,0,-6.5679099559783936,-15.279174089431763,1.0
1762170558.1100163,-19.0,-45.0,-998.0,0,0,0,-6.5679099559783936,-15.279174089431763,1.0
1762170558.225415,-11.0,-25.0,-990.0,0,0,0,-6.5679099559783936,-15.279174089431763,1.0
1762170558.3263493,-23.0,2.0,-1015.0,0,0,0,-6.5679099559783936,-15.279174089431763,1.0
1762170558.4442232,-20.0,-8.0,-987.0,0,0,0,-6.5679099559783936,-15.279174089431763,1.0
1762170558.5600839,-34.0,-25.0,-984.0,0,0,0,-6.5679099559783936,-15.279174089431763,1.0
1762170558.6618452,-20.0,-29.0,-1010.0,0,0,0,-6.5679099559783936,-15.279174089431763,1.0
1762170558.7625551,-15.0,-16.0,-1043.0,0,0,0,-6.5679099559783936,-15.279174089431763,1.0
1762170558.877389,-11.0,-33.0,-1004.0,0,0,0,-6.5679099559783936,-15.279174089431763,1.0
1762170558.9790733,-7.0,-12.0,-985.0,0,0,0,-6.5679099559783936,-15.279174089431763,1.0
1762170559.080474,-10.0,-4.0,-1008.0,0,0,0,-6.5679099559783936,-15.279174089431763,1.0
1762170559.1949143,0.0,-10.0,-989.0,0,0,0,-6.5679099559783936,-15.279174089431763,1.0
1762170559.3095937,1.0,-4.0,-978.0,0,0,0,-6.5679099559783936,-15.279174089431763,1.0
1762170559.4108841,-6.0,-30.0,-1001.0,0,0,0,-6.5679099559783936,-15.279174089431763,1.0
1762170559.5264502,-6.0,8.0,-1006.0,0,0,0,-6.5679099559783936,-15.279174089431763,1.0
1762170559.6274323,-28.0,-3.0,-1008.0,0,0,0,-6.5679099559783936,-15.279174089431763,1.0
1762170559.7432733,-6.0,23.0,-994.0,0,0,0,-6.5679099559783936,-15.279174089431763,1.0
1762170559.8454099,-16.0,-2.0,-968.0,0,0,0,-6.5679099559783936,-15.279174089431763,1.0
1762170559.9595172,-4.0,-54.0,-1004.0,0,0,0,-6.5679099559783936,-15.279174089431763,1.0
1762170560.060347,-1.0,-16.0,-1029.0,0,0,0,-6.5679099559783936,-15.279174089431763,1.0
1762170560.176196,0.0,-10.0,-1029.0,0,0,0,-6.5679099559783936,-15.279174089431763,1.0
1762170560.2775598,-5.0,-41.0,-1011.0,0,0,0,-6.5679099559783936,-15.279174089431763,1.0
1762170560.3781943,7.0,-4.0,-989.0,0,0,0,-6.5679099559783936,-15.279174089431763,1.0
1762170560.478867,-4.0,-1.0,-980.0,0,0,0,-6.5679099559783936,-15.279174089431763,1.0
1762170560.5791326,-17.0,-44.0,-949.0,0,0,0,-6.5679099559783936,-15.279174089431763,1.0
1762170560.6798425,5.0,-6.0,-1022.0,0,0,0,-6.5679099559783936,-15.279174089431763,1.0
1762170560.7805734,-9.0,-3.0,-1028.0,0,0,0,-6.5679099559783936,-15.279174089431763,1.0
1762170560.8958614,4.0,-27.0,-996.0,0,0,0,-6.5679099559783936,-15.279174089431763,1.0
1762170561.0102808,-1.0,0.0,-1016.0,0,0,0,-6.5679099559783936,-15.279174089431763,1.0
1762170561.125629,-10.0,-25.0,-975.0,0,0,0,-6.5679099559783936,-15.279174089431763,1.0
1762170561.227694,3.0,-25.0,-1010.0,0,0,0,-6.5679099559783936,-15.279174089431763,1.0
1762170561.341518,-6.0,-16.0,-986.0,0,0,0,-6.5679099559783936,-15.279174089431763,1.0
1762170561.4605405,-6.0,-30.0,-1005.0,0,0,0,-6.5679099559783936,-15.279174089431763,1.0
1762170561.5764904,11.0,-14.0,-1030.0,0,0,0,-6.5679099559783936,-15.279174089431763,1.0
1762170561.6769335,-1.0,-27.0,-1043.0,0,0,0,-6.5679099559783936,-15.279174089431763,1.0
1762170561.7779186,12.0,-11.0,-972.0,0,0,0,-6.5679099559783936,-15.279174089431763,1.0
1762170561.8794165,1.0,-11.0,-1021.0,0,0,0,-6.5679099559783936,-15.279174089431763,1.0
1762170561.9796796,8.0,-30.0,-975.0,0,0,0,-6.5679099559783936,-15.279174089431763,1.0
1762170562.0946639,-3.0,-14.0,-1021.0,0,0,0,-6.5679099559783936,-15.279174089431763,1.0
1762170562.1960733,5.0,-36.0,-1045.0,0,0,0,-6.5679099559783936,-15.279174089431763,1.0
1762170562.3104029,-2.0,-16.0,-964.0,0,0,0,-6.5679099559783936,-15.279174089431763,1.0
1762170562.425519,13.0,-18.0,-1030.0,0,0,0,-6.5679099559783936,-15.279174089431763,1.0
1762170562.5262992,-4.0,-15.0,-1021.0,0,0,0,-6.5679099559783936,-15.279174089431763,1.0
1762170562.62798,7.0,-18.0,-976.0,0,0,0,-6.5679099559783936,-15.279174089431763,1.0
1762170562.743138,-7.0,-21.0,-1017.0,0,0,0,-6.5679099559783936,-15.279174089431763,1.0
1762170562.8602736,6.0,-10.0,-990.0,0,0,0,-6.5679099559783936,-15.279174089431763,1.0
1762170562.975958,2.0,-28.0,-987.0,0,0,0,-6.5679099559783936,-15.279174089431763,1.0
1762170563.077035,15.0,-8.0,-989.0,0,0,0,-6.5679099559783936,-15.279174089431763,1.0
1762170563.193951,0.0,-22.0,-997.0,0,0,0,-6.5679099559783936,-15.279174089431763,1.0
1762170563.2957828,5.0,-29.0,-1005.0,0,0,0,-6.5679099559783936,-15.279174089431763,1.0
1762170563.4105713,-3.0,-10.0,-981.0,0,0,0,-6.5679099559783936,-15.279174089431763,1.0
1762170563.513047,7.0,-45.0,-1045.0,0,0,0,-6.5679099559783936,-15.279174089431763,1.0
1762170563.6160505,-16.0,-37.0,-967.0,0,0,0,-6.5679099559783936,-15.279174089431763,1.0
1762170563.7272463,-9.0,-26.0,-1002.0,0,0,0,-6.5679099559783936,-15.279174089431763,1.0
1762170563.8282242,5.0,-31.0,-991.0,0,0,0,-6.5679099559783936,-15.279174089431763,1.0
1762170563.9430943,12.0,-28.0,-953.0,0,0,0,-6.5679099559783936,-15.279174089431763,1.0
1762170564.043696,26.0,-29.0,-982.0,0,0,0,-6.5679099559783936,-15.279174089431763,1.0
1762170564.1596215,-2.0,-30.0,-977.0,0,0,0,-6.5679099559783936,-15.279174089431763,1.0
1762170564.278058,26.0,-34.0,-994.0,0,0,0,-6.5679099559783936,-15.279174089431763,1.0
1762170564.3948262,-6.0,-28.0,-948.0,0,0,0,-6.5679099559783936,-15.279174089431763,1.0
1762170564.495337,8.0,-9.0,-992.0,0,0,0,-6.5679099559783936,-15.279174089431763,1.0
1762170564.5957024,4.0,-19.0,-1023.0,0,0,0,-6.5679099559783936,-15.279174089431763,1.0
1762170564.7107315,11.0,-29.0,-988.0,0,0,0,-6.5679099559783936,-15.279174089431763,1.0
1762170564.8117182,-4.0,-33.0,-1026.0,0,0,0,-6.5679099559783936,-15.279174089431763,1.0
1762170564.927498,16.0,-12.0,-991.0,0,0,0,-6.5679099559783936,-15.279174089431763,1.0
1762170565.0435336,6.0,0.0,-996.0,0,0,0,-6.5679099559783936,-15.279174089431763,1.0
1762170565.159824,12.0,-20.0,-1005.0,0,0,0,-6.5679099559783936,-15.279174089431763,1.0
1762170565.2777028,4.0,-17.0,-975.0,0,0,0,-6.5679099559783936,-15.279174089431763,1.0
1762170565.3933682,26.0,0.0,-1021.0,0,-1,0,-6.5679099559783936,-15.394839525222778,1.0
1762170565.4949765,13.0,-10.0,-1019.0,0,-1,0,-6.5679099559783936,-15.496447801589966,1.0
1762170565.6109731,23.0,-12.0,-1024.0,0,-1,0,-6.5679099559783936,-15.612444400787354,1.0
1762170565.712833,31.0,5.0,-998.0,0,-1,0,-6.5679099559783936,-15.714304208755493,1.0
1762170565.8143399,18.0,6.0,-1000.0,0,-1,0,-6.5679099559783936,-15.815811157226562,1.0
1762170565.927306,23.0,-24.0,-1027.0,0,-1,0,-6.5679099559783936,-15.92877721786499,1.0
1762170566.0425584,17.0,0.0,-986.0,0,-1,0,-6.5679099559783936,-16.044029712677002,1.0
1762170566.144397,29.0,-3.0,-986.0,0,-1,0,-6.5679099559783936,-16.1458683013916,1.0
1762170566.2588909,20.0,-9.0,-1051.0,0,-1,0,-6.5679099559783936,-16.260362148284912,1.0
1762170566.378059,28.0,-2.0,-990.0,0,-1,0,-6.5679099559783936,-16.37953019142151,1.0
1762170566.4931087,24.0,-14.0,-978.0,0,-1,0,-6.5679099559783936,-16.494580030441284,1.0
1762170566.594842,25.0,-24.0,-1025.0,0,-1,0,-6.5679099559783936,-16.59631323814392,1.0
1762170566.6959777,22.0,-11.0,-999.0,0,-1,0,-6.5679099559783936,-16.69744896888733,1.0
1762170566.8072221,11.0,-34.0,-960.0,0,-1,0,-6.5679099559783936,-16.808693408966064,1.0
1762170566.9120517,25.0,-13.0,-1031.0,1,-1,0,-6.463080406188965,-16.913522958755493,1.0
1762170567.0275788,-19.0,-8.0,-1024.0,1,0,0,-6.347553253173828,-16.913522958755493,1.0
1762170567.1418023,-37.0,-31.0,-1018.0,2,0,1,-6.119106292724609,-16.913522958755493,1.1142234802246094
1762170567.259764,-34.0,-14.0,-993.0,3,0,0,-5.765221357345581,-16.913522958755493,1.1142234802246094
1762170567.3622134,30.0,-36.0,-981.0,3,0,0,-5.457873106002808,-16.913522958755493,1.1142234802246094
1762170567.462525,30.0,-46.0,-996.0,3,0,0,-5.156938552856445,-16.913522958755493,1.1142234802246094
1762170567.5633452,31.0,-40.0,-983.0,3,0,0,-4.854477643966675,-16.913522958755493,1.1142234802246094
1762170567.6638796,20.0,-42.0,-980.0,3,0,0,-4.552874326705933,-16.913522958755493,1.1142234802246094
1762170567.7771866,22.0,-35.0,-961.0,4,0,0,-4.099646329879761,-16.913522958755493,1.1142234802246094
1762170567.8784862,16.0,-25.0,-984.0,4,0,0,-3.694448232650757,-16.913522958755493,1.1142234802246094
1762170567.9796078,29.0,-73.0,-981.0,3,1,0,-3.391083240509033,-16.812401294708252,1.1142234802246094
1762170568.094016,-3.0,-7.0,-968.0,2,3,0,-3.162266731262207,-16.469176530838013,1.1142234802246094
1762170568.2099023,-6.0,-19.0,-947.0,1,3,-1,-3.0463805198669434,-16.12151789665222,0.9983372688293457
1762170568.325454,-12.0,0.0,-990.0,1,2,-1,-2.930828809738159,-15.890414476394653,0.8827855587005615
1762170568.427331,-26.0,-4.0,-998.0,0,2,-1,-2.930828809738159,-15.686660528182983,0.7809085845947266
1762170568.5442824,-19.0,1.0,-1010.0,0,2,-1,-2.930828809738159,-15.452757596969604,0.6639571189880371
1762170568.6587973,-6.0,0.0,-1056.0,0,2,-1,-2.930828809738159,-15.223727941513062,0.5494422912597656
1762170568.7593606,-16.0,21.0,-1044.0,0,1,0,-2.930828809738159,-15.123164653778076,0.5494422912597656
1762170568.861842,-28.0,6.0,-1070.0,0,1,0,-2.930828809738159,-15.020683288574219,0.5494422912597656
1762170568.9623897,-13.0,-29.0,-1040.0,0,1,0,-2.930828809738159,-14.920135498046875,0.5494422912597656
1762170569.0781336,-17.0,-20.0,-1031.0,0,1,0,-2.930828809738159,-14.804391622543335,0.5494422912597656
1762170569.179083,0.0,-18.0,-1066.0,0,0,0,-2.930828809738159,-14.804391622543335,0.5494422912597656
1762170569.294001,9.0,2.0,-1007.0,0,0,0,-2.930828809738159,-14.804391622543335,0.5494422912597656
1762170569.3951645,-9.0,23.0,-1027.0,0,0,0,-2.930828809738159,-14.804391622543335,0.5494422912597656
1762170569.5087585,-33.0,7.0,-1011.0,0,0,0,-2.930828809738159,-14.804391622543335,0.5494422912597656
1762170569.6095755,-11.0,15.0,-1014.0,0,0,0,-2.930828809738159,-14.804391622543335,0.5494422912597656
1762170569.712433,19.0,-30.0,-991.0,0,0,0,-2.930828809738159,-14.804391622543335,0.5494422912597656
1762170569.8263245,8.0,-13.0,-997.0,0,0,0,-2.930828809738159,-14.804391622543335,0.5494422912597656
1762170569.9402564,-3.0,24.0,-1001.0,0,0,0,-2.930828809738159,-14.804391622543335,0.5494422912597656
1762170570.0448725,-3.0,24.0,-1001.0,0,0,0,-2.930828809738159,-14.804391622543335,0.5494422912597656
1762170570.1554353,3.0,-15.0,-978.0,0,0,0,-2.930828809738159,-14.804391622543335,0.5494422912597656
1762170570.2588544,-8.0,20.0,-1035.0,0,0,0,-2.930828809738159,-14.804391622543335,0.5494422912597656
1762170570.3603826,14.0,1.0,-998.0,0,0,0,-2.930828809738159,-14.804391622543335,0.5494422912597656
1762170570.4626837,-2.0,-20.0,-1005.0,0,0,0,-2.930828809738159,-14.804391622543335,0.5494422912597656
1762170570.5777702,0.0,-18.0,-1031.0,0,0,0,-2.930828809738159,-14.804391622543335,0.5494422912597656
1762170570.6792731,17.0,-23.0,-1014.0,0,0,0,-2.930828809738159,-14.804391622543335,0.5494422912597656
1762170570.795023,5.0,-25.0,-999.0,0,0,0,-2.930828809738159,-14.804391622543335,0.5494422912597656
1762170570.910231,-12.0,20.0,-1022.0,0,0,0,-2.930828809738159,-14.804391622543335,0.5494422912597656
1762170571.0250819,-26.0,1.0,-968.0,0,0,0,-2.930828809738159,-14.804391622543335,0.5494422912597656
1762170571.1405642,1.0,-35.0,-992.0,0,0,0,-2.930828809738159,-14.804391622543335,0.5494422912597656
1762170571.2423067,1.0,-35.0,-992.0,0,0,0,-2.930828809738159,-14.804391622543335,0.5494422912597656
1762170571.3443284,3.0,-32.0,-997.0,0,0,0,-2.930828809738159,-14.804391622543335,0.5494422912597656
1762170571.4598465,-1.0,-17.0,-968.0,0,0,0,-2.930828809738159,-14.804391622543335,0.5494422912597656
1762170571.561285,3.0,34.0,-978.0,0,0,0,-2.930828809738159,-14.804391622543335,0.5494422912597656
1762170571.661995,-3.0,-18.0,-1005.0,0,0,0,-2.930828809738159,-14.804391622543335,0.5494422912597656
1762170571.7622914,8.0,-24.0,-981.0,0,0,0,-2.930828809738159,-14.804391622543335,0.5494422912597656
1762170571.8627896,11.0,31.0,-971.0,0,0,0,-2.930828809738159,-14.804391622543335,0.5494422912597656
1762170571.9636402,14.0,-1.0,-1008.0,0,0,0,-2.930828809738159,-14.804391622543335,0.5494422912597656
1762170572.0640817,2.0,29.0,-1027.0,1,1,0,-2.8303873538970947,-14.70395016670227,0.5494422912597656
1762170572.1778083,1.0,4.0,-993.0,1,1,0,-2.716660737991333,-14.590223550796509,0.5494422912597656
1762170572.2786248,9.0,-2.0,-985.0,0,1,0,-2.716660737991333,-14.489407062530518,0.5494422912597656
1762170572.3797667,11.0,2.0,-990.0,0,1,0,-2.716660737991333,-14.388265132904053,0.5494422912597656
1762170572.4940982,0.0,2.0,-988.0,0,1,0,-2.716660737991333,-14.27393364906311,0.5494422912597656
1762170572.610102,11.0,10.0,-1003.0,1,1,0,-2.6006569862365723,-14.15792989730835,0.5494422912597656
1762170572.726101,20.0,1.0,-1009.0,1,1,0,-2.4846580028533936,-14.041930913925171,0.5494422912597656
1762170572.8270164,4.0,15.0,-1006.0,1,1,0,-2.383742570877075,-13.941015481948853,0.5494422912597656
1762170572.9438052,12.0,4.0,-999.0,1,1,0,-2.266953706741333,-13.82422661781311,0.5494422912597656
1762170573.0588167,10.0,-2.0,-992.0,1,1,0,-2.151942253112793,-13.70921516418457,0.5494422912597656
1762170573.1600497,10.0,-1.0,-979.0,1,1,0,-2.0507092475891113,-13.607982158660889,0.5494422912597656
1762170573.2606347,19.0,-4.0,-994.0,1,1,0,-1.9501242637634277,-13.507397174835205,0.5494422912597656
1762170573.3638215,1.0,1.0,-994.0,1,1,0,-1.8469374179840088,-13.404210329055786,0.5494422912597656
1762170573.4776316,10.0,1.0,-1004.0,0,1,0,-1.8469374179840088,-13.290400266647339,0.5494422912597656
1762170573.5989845,32.0,-8.0,-1007.0,0,1,0,-1.8469374179840088,-13.169047355651855,0.5494422912597656
1762170573.7111487,3.0,5.0,-1001.0,0,1,0,-1.8469374179840088,-13.056883096694946,0.5494422912597656
1762170573.8267212,-15.0,8.0,-993.0,0,1,0,-1.8469374179840088,-12.94131064414978,0.5494422912597656
1762170573.9436965,-17.0,9.0,-985.0,0,1,0,-1.8469374179840088,-12.82433533668518,0.5494422912597656
1762170574.0598195,-22.0,7.0,-992.0,0,1,0,-1.8469374179840088,-12.70821237564087,0.5494422912597656
1762170574.1601746,16.0,-4.0,-998.0,0,1,0,-1.8469374179840088,-12.60785722732544,0.5494422912597656
1762170574.275399,-1.0,8.0,-1001.0,0,1,0,-1.8469374179840088,-12.492632865905762,0.5494422912597656
1762170574.3763926,-13.0,-1.0,-1003.0,0,1,0,-1.8469374179840088,-12.391639232635498,0.5494422912597656
1762170574.477923,-5.0,3.0,-994.0,0,1,0,-1.8469374179840088,-12.290108919143677,0.5494422912597656
1762170574.5786893,-13.0,7.0,-974.0,0,1,0,-1.8469374179840088,-12.189342498779297,0.5494422912597656
1762170574.6923342,-15.0,13.0,-996.0,0,1,0,-1.8469374179840088,-12.075697660446167,0.5494422912597656
1762170574.7955744,3.0,8.0,-974.0,0,1,0,-1.8469374179840088,-11.97245740890503,0.5494422912597656
1762170574.8959112,14.0,12.0,-987.0,0,1,0,-1.8469374179840088,-11.87212061882019,0.5494422912597656
1762170575.0109067,34.0,-17.0,-963.0,0,1,0,-1.8469374179840088,-11.75712513923645,0.5494422912597656
1762170575.1114788,0.0,9.0,-976.0,0,1,0,-1.8469374179840088,-11.656553030014038,0.5494422912597656
1762170575.2270532,6.0,-4.0,-1018.0,0,1,0,-1.8469374179840088,-11.54097867012024,0.5494422912597656
1762170575.3424704,13.0,-2.0,-1014.0,0,1,0,-1.8469374179840088,-11.425561428070068,0.5494422912597656
1762170575.460708,5.0,4.0,-1014.0,0,1,0,-1.8469374179840088,-11.307323932647705,0.5494422912597656
1762170575.5754304,4.0,-4.0,-1011.0,0,1,0,-1.8469374179840088,-11.192601442337036,0.5494422912597656
1762170575.6776469,9.0,-9.0,-1000.0,0,1,0,-1.8469374179840088,-11.09038496017456,0.5494422912597656
1762170575.7905939,3.0,-15.0,-1015.0,0,1,0,-1.8469374179840088,-10.977437973022461,0.5494422912597656
1762170575.8944952,-14.0,-1.0,-1000.0,0,1,0,-1.8469374179840088,-10.873536586761475,0.5494422912597656
1762170575.995519,-8.0,-16.0,-1006.0,0,0,0,-1.8469374179840088,-10.873536586761475,0.5494422912597656
1762170576.1108496,17.0,-12.0,-1016.0,1,0,0,-1.7316067218780518,-10.873536586761475,0.5494422912597656
1762170576.2248795,37.0,-30.0,-1020.0,1,0,0,-1.6175768375396729,-10.873536586761475,0.5494422912597656
1762170576.326606,9.0,-22.0,-1001.0,0,0,0,-1.6175768375396729,-10.873536586761475,0.5494422912597656
1762170576.4282112,-21.0,-8.0,-1007.0,0,1,0,-1.6175768375396729,-10.771931409835815,0.5494422912597656
1762170576.541823,-4.0,-4.0,-1006.0,0,1,0,-1.6175768375396729,-10.65831971168518,0.5494422912597656
1762170576.6441927,-7.0,-11.0,-991.0,0,1,0,-1.6175768375396729,-10.555949926376343,0.5494422912597656
1762170576.7621133,-13.0,-5.0,-1007.0,0,0,0,-1.6175768375396729,-10.555949926376343,0.5494422912597656
1762170576.8758717,1.0,-11.0,-1024.0,-1,1,0,-1.731335163116455,-10.44219160079956,0.5494422912597656
1762170576.9763343,-13.0,-8.0,-1018.0,-1,1,0,-1.8317978382110596,-10.341728925704956,0.5494422912597656
1762170577.0908368,15.0,-9.0,-993.0,-1,1,0,-1.9463002681732178,-10.227226495742798,0.5494422912597656
1762170577.1955457,9.0,-5.0,-985.0,-2,1,0,-2.1557180881500244,-10.122517585754395,0.5494422912597656
1762170577.3109388,-19.0,3.0,-1025.0,-3,1,0,-2.5018975734710693,-10.007124423980713,0.5494422912597656
1762170577.412969,-32.0,-9.0,-1021.0,-3,0,0,-2.807988405227661,-10.007124423980713,0.5494422912597656
1762170577.52713,-10.0,4.0,-999.0,-2,0,0,-3.0363099575042725,-10.007124423980713,0.5494422912597656
1762170577.6439798,12.0,0.0,-1000.0,-1,0,0,-3.1531598567962646,-10.007124423980713,0.5494422912597656
1762170577.7604587,-7.0,10.0,-980.0,-1,0,0,-3.269638776779175,-10.007124423980713,0.5494422912597656
1762170577.8620815,-7.0,3.0,-999.0,-1,0,0,-3.3712615966796875,-10.007124423980713,0.5494422912597656
1762170577.9742312,-5.0,17.0,-1002.0,-1,0,0,-3.4834113121032715,-10.007124423980713,0.5494422912597656
1762170578.07733,-2.0,3.0,-994.0,0,0,0,-3.4834113121032715,-10.007124423980713,0.5494422912597656
1762170578.1793103,-1.0,-3.0,-1005.0,0,0,0,-3.4834113121032715,-10.007124423980713,0.5494422912597656
1762170578.2943764,-5.0,2.0,-1014.0,0,0,0,-3.4834113121032715,-10.007124423980713,0.5494422912597656
1762170578.4091513,9.0,-9.0,-1012.0,0,0,0,-3.4834113121032715,-10.007124423980713,0.5494422912597656
1762170578.5112264,5.0,3.0,-1007.0,0,0,0,-3.4834113121032715,-10.007124423980713,0.5494422912597656
1762170578.6258645,-26.0,11.0,-978.0,0,0,0,-3.4834113121032715,-10.007124423980713,0.5494422912597656
1762170578.7442865,0.0,-3.0,-1027.0,0,0,0,-3.4834113121032715,-10.007124423980713,0.5494422912597656
1762170578.8601418,-18.0,1.0,-983.0,0,0,0,-3.4834113121032715,-10.007124423980713,0.5494422912597656
1762170578.9606075,-11.0,-36.0,-1005.0,0,0,0,-3.4834113121032715,-10.007124423980713,0.5494422912597656
1762170579.0623555,-9.0,-7.0,-1003.0,-1,0,0,-3.5851593017578125,-10.007124423980713,0.5494422912597656
1762170579.1630673,-13.0,12.0,-1000.0,-1,0,0,-3.685871124267578,-10.007124423980713,0.5494422912597656
1762170579.2787404,-13.0,12.0,-1000.0,-1,0,0,-3.801544189453125,-10.007124423980713,0.5494422912597656
1762170579.3794363,0.0,-41.0,-990.0,-1,0,0,-3.902240037918091,-10.007124423980713,0.5494422912597656
1762170579.49445,-1.0,-6.0,-1002.0,-1,0,0,-4.017253875732422,-10.007124423980713,0.5494422912597656
1762170579.6102252,5.0,12.0,-999.0,-1,0,0,-4.133028984069824,-10.007124423980713,0.5494422912597656
1762170579.7112882,-3.0,-6.0,-996.0,-1,0,0,-4.2340919971466064,-10.007124423980713,0.5494422912597656
1762170579.8260572,16.0,40.0,-998.0,0,0,0,-4.2340919971466064,-10.007124423980713,0.5494422912597656
1762170579.9433923,1.0,-10.0,-975.0,0,0,0,-4.2340919971466064,-10.007124423980713,0.5494422912597656
1762170580.04455,-2.0,-16.0,-978.0,0,0,0,-4.2340919971466064,-10.007124423980713,0.5494422912597656
1762170580.159939,17.0,17.0,-1010.0,0,0,0,-4.2340919971466064,-10.007124423980713,0.5494422912597656
1762170580.260604,6.0,12.0,-986.0,0,0,0,-4.2340919971466064,-10.007124423980713,0.5494422912597656
1762170580.3637192,-14.0,14.0,-1029.0,0,0,0,-4.2340919971466064,-10.007124423980713,0.5494422912597656
1762170580.4776504,-4.0,5.0,-1042.0,0,0,0,-4.2340919971466064,-10.007124423980713,0.5494422912597656
1762170580.579089,2.0,-1.0,-994.0,0,0,0,-4.2340919971466064,-10.007124423980713,0.5494422912597656
1762170580.6942606,1.0,-13.0,-1000.0,0,0,0,-4.2340919971466064,-10.007124423980713,0.5494422912597656
1762170580.7961524,-1.0,-33.0,-1009.0,0,0,0,-4.2340919971466064,-10.007124423980713,0.5494422912597656
1762170580.8980544,-3.0,-16.0,-1017.0,0,0,0,-4.2340919971466064,-10.007124423980713,0.5494422912597656
1762170581.010984,5.0,0.0,-1025.0,0,0,0,-4.2340919971466064,-10.007124423980713,0.5494422912597656
1762170581.1129093,17.0,-27.0,-983.0,0,0,0,-4.2340919971466064,-10.007124423980713,0.5494422912597656
1762170581.2270029,14.0,16.0,-993.0,0,0,0,-4.2340919971466064,-10.007124423980713,0.5494422912597656
1762170581.328257,18.0,2.0,-1038.0,0,0,0,-4.2340919971466064,-10.007124423980713,0.5494422912597656
1762170581.441908,6.0,-48.0,-989.0,0,0,0,-4.2340919971466064,-10.007124423980713,0.5494422912597656
1762170581.542483,6.0,-51.0,-1008.0,0,0,0,-4.2340919971466064,-10.007124423980713,0.5494422912597656
1762170581.642867,12.0,-8.0,-999.0,0,0,0,-4.2340919971466064,-10.007124423980713,0.5494422912597656
1762170581.7587874,-7.0,-16.0,-981.0,0,0,0,-4.2340919971466064,-10.007124423980713,0.5494422912597656
1762170581.8608882,12.0,-26.0,-993.0,0,0,0,-4.2340919971466064,-10.007124423980713,0.5494422912597656
1762170581.9614232,3.0,-10.0,-996.0,0,0,0,-4.2340919971466064,-10.007124423980713,0.5494422912597656
1762170582.0761602,11.0,12.0,-1006.0,0,0,0,-4.2340919971466064,-10.007124423980713,0.5494422912597656
1762170582.1769736,-3.0,-12.0,-981.0,0,0,0,-4.2340919971466064,-10.007124423980713,0.5494422912597656
1762170582.2790082,11.0,-17.0,-979.0,0,0,0,-4.2340919971466064,-10.007124423980713,0.5494422912597656
1762170582.379607,-8.0,11.0,-986.0,0,0,0,-4.2340919971466064,-10.007124423980713,0.5494422912597656
1762170582.4798133,1.0,-4.0,-1007.0,0,0,0,-4.2340919971466064,-10.007124423980713,0.5494422912597656
1762170582.5801961,7.0,-18.0,-1001.0,0,0,0,-4.2340919971466064,-10.007124423980713,0.5494422912597656
1762170582.696118,19.0,-25.0,-1003.0,0,0,0,-4.2340919971466064,-10.007124423980713,0.5494422912597656
1762170582.8109994,-10.0,-11.0,-940.0,0,0,0,-4.2340919971466064,-10.007124423980713,0.5494422912597656
1762170582.9269965,19.0,-8.0,-1008.0,0,0,0,-4.2340919971466064,-10.007124423980713,0.5494422912597656
1762170583.0445714,25.0,-4.0,-982.0,0,0,0,-4.2340919971466064,-10.007124423980713,0.5494422912597656
1762170583.1600485,4.0,-6.0,-1004.0,0,0,0,-4.2340919971466064,-10.007124423980713,0.5494422912597656
1762170583.2618663,-3.0,-33.0,-991.0,0,0,0,-4.2340919971466064,-10.007124423980713,0.5494422912597656
1762170583.3626826,-5.0,-28.0,-1001.0,0,0,0,-4.2340919971466064,-10.007124423980713,0.5494422912597656
1762170583.4769409,0.0,-19.0,-1027.0,0,0,0,-4.2340919971466064,-10.007124423980713,0.5494422912597656
1762170583.5926423,0.0,-11.0,-1015.0,0,0,0,-4.2340919971466064,-10.007124423980713,0.5494422912597656
1762170583.7076075,12.0,-2.0,-975.0,0,0,0,-4.2340919971466064,-10.007124423980713,0.5494422912597656
1762170583.8095915,-4.0,-8.0,-1010.0,0,0,0,-4.2340919971466064,-10.007124423980713,0.5494422912597656
1762170583.9107978,-4.0,-17.0,-998.0,0,0,0,-4.2340919971466064,-10.007124423980713,0.5494422912597656
1762170584.0113916,-4.0,-17.0,-998.0,0,0,0,-4.2340919971466064,-10.007124423980713,0.5494422912597656
1762170584.1260982,-2.0,-7.0,-994.0,0,0,0,-4.2340919971466064,-10.007124423980713,0.5494422912597656
1762170584.2284122,10.0,-20.0,-997.0,0,0,0,-4.2340919971466064,-10.007124423980713,0.5494422912597656
1762170584.3289406,21.0,-12.0,-995.0,0,0,0,-4.2340919971466064,-10.007124423980713,0.5494422912597656
1762170584.429832,-1.0,-8.0,-1042.0,0,0,0,-4.2340919971466064,-10.007124423980713,0.5494422912597656
1762170584.5447729,-12.0,-20.0,-1026.0,0,0,0,-4.2340919971466064,-10.007124423980713,0.5494422912597656
1762170584.6459384,16.0,-11.0,-1009.0,0,0,0,-4.2340919971466064,-10.007124423980713,0.5494422912597656
1762170584.7461455,-17.0,-17.0,-986.0,0,0,0,-4.2340919971466064,-10.007124423980713,0.5494422912597656
1762170584.8607144,0.0,-7.0,-1013.0,0,0,0,-4.2340919971466064,-10.007124423980713,0.5494422912597656
1762170584.9763339,10.0,-5.0,-977.0,0,0,0,-4.2340919971466064,-10.007124423980713,0.5494422912597656
1762170585.0779834,2.0,-8.0,-1017.0,0,0,0,-4.2340919971466064,-10.007124423980713,0.5494422912597656
1762170585.1938858,-3.0,-2.0,-1000.0,0,0,0,-4.2340919971466064,-10.007124423980713,0.5494422912597656
1762170585.3111093,10.0,-4.0,-1009.0,0,0,0,-4.2340919971466064,-10.007124423980713,0.5494422912597656
1762170585.4269538,1.0,-16.0,-964.0,0,0,0,-4.2340919971466064,-10.007124423980713,0.5494422912597656
1762170585.5286286,-15.0,-12.0,-1007.0,0,0,0,-4.2340919971466064,-10.007124423980713,0.5494422912597656
1762170585.6298394,-15.0,-37.0,-949.0,0,0,0,-4.2340919971466064,-10.007124423980713,0.5494422912597656
1762170585.7303386,1.0,-13.0,-1014.0,0,0,0,-4.2340919971466064,-10.007124423980713,0.5494422912597656
1762170585.8447168,-6.0,-23.0,-1023.0,0,0,0,-4.2340919971466064,-10.007124423980713,0.5494422912597656
1762170585.9454875,-1.0,-21.0,-1010.0,0,0,0,-4.2340919971466064,-10.007124423980713,0.5494422912597656
1762170586.0460677,-1.0,-21.0,-1010.0,0,0,0,-4.2340919971466064,-10.007124423980713,0.5494422912597656
1762170586.150025,-10.0,-23.0,-962.0,0,0,0,-4.2340919971466064,-10.007124423980713,0.5494422912597656
1762170586.264204,5.0,18.0,-989.0,0,0,0,-4.2340919971466064,-10.007124423980713,0.5494422912597656
1762170586.37793,-6.0,34.0,-995.0,0,0,0,-4.2340919971466064,-10.007124423980713,0.5494422912597656
1762170586.4940672,-9.0,-17.0,-1016.0,0,0,0,-4.2340919971466064,-10.007124423980713,0.5494422912597656
1762170586.6096878,11.0,-12.0,-973.0,0,0,0,-4.2340919971466064,-10.007124423980713,0.5494422912597656
1762170586.7119367,-5.0,-5.0,-999.0,0,0,0,-4.2340919971466064,-10.007124423980713,0.5494422912597656
1762170586.8267055,2.0,1.0,-1021.0,0,0,0,-4.2340919971466064,-10.007124423980713,0.5494422912597656
1762170586.928452,-14.0,-1.0,-1014.0,0,0,0,-4.2340919971466064,-10.007124423980713,0.5494422912597656
1762170587.0422745,-3.0,-11.0,-989.0,0,0,0,-4.2340919971466064,-10.007124423980713,0.5494422912597656
1762170587.1435037,10.0,16.0,-1007.0,0,0,0,-4.2340919971466064,-10.007124423980713,0.5494422912597656
1762170587.2447598,4.0,-6.0,-982.0,0,0,0,-4.2340919971466064,-10.007124423980713,0.5494422912597656
1762170587.3607168,4.0,-6.0,-982.0,0,0,0,-4.2340919971466064,-10.007124423980713,0.5494422912597656
1762170587.4621212,5.0,0.0,-1007.0,0,0,0,-4.2340919971466064,-10.007124423980713,0.5494422912597656
1762170587.5640047,-17.0,14.0,-1024.0,0,0,0,-4.2340919971466064,-10.007124423980713,0.5494422912597656
1762170587.677668,15.0,5.0,-986.0,0,0,0,-4.2340919971466064,-10.007124423980713,0.5494422912597656
1762170587.7780588,-9.0,-6.0,-969.0,0,0,0,-4.2340919971466064,-10.007124423980713,0.5494422912597656
1762170587.879557,-17.0,20.0,-1023.0,0,0,0,-4.2340919971466064,-10.007124423980713,0.5494422912597656
1762170587.9943852,4.0,-6.0,-1012.0,0,0,0,-4.2340919971466064,-10.007124423980713,0.5494422912597656
1762170588.1111841,0.0,-42.0,-969.0,0,0,0,-4.2340919971466064,-10.007124423980713,0.5494422912597656
1762170588.2270432,5.0,39.0,-1011.0,0,0,0,-4.2340919971466064,-10.007124423980713,0.5494422912597656
1762170588.32795,-2.0,17.0,-987.0,0,0,0,-4.2340919971466064,-10.007124423980713,0.5494422912597656
1762170588.443622,1.0,-17.0,-997.0,0,0,0,-4.2340919971466064,-10.007124423980713,0.5494422912597656
1762170588.5592875,-6.0,-21.0,-1027.0,0,0,0,-4.2340919971466064,-10.007124423980713,0.5494422912597656
1762170588.6612432,0.0,16.0,-999.0,0,0,0,-4.2340919971466064,-10.007124423980713,0.5494422912597656
1762170588.7625535,1.0,17.0,-988.0,0,0,0,-4.2340919971466064,-10.007124423980713,0.5494422912597656
1762170588.8767617,-7.0,-6.0,-1002.0,0,0,0,-4.2340919971466064,-10.007124423980713,0.5494422912597656
1762170588.9771228,12.0,17.0,-989.0,0,0,0,-4.2340919971466064,-10.007124423980713,0.5494422912597656
1762170589.0791314,3.0,13.0,-1010.0,0,0,0,-4.2340919971466064,-10.007124423980713,0.5494422912597656
1762170589.1793654,-20.0,0.0,-1004.0,0,0,0,-4.2340919971466064,-10.007124423980713,0.5494422912597656
1762170589.2796214,-6.0,0.0,-1026.0,0,0,0,-4.2340919971466064,-10.007124423980713,0.5494422912597656
1762170589.3954,12.0,9.0,-1001.0,0,0,0,-4.2340919971466064,-10.007124423980713,0.5494422912597656
1762170589.5104315,21.0,39.0,-999.0,0,0,0,-4.2340919971466064,-10.007124423980713,0.5494422912597656
1762170589.6111414,-1.0,-37.0,-959.0,0,0,0,-4.2340919971466064,-10.007124423980713,0.5494422912597656
1762170589.7262216,3.0,-8.0,-1016.0,0,0,0,-4.2340919971466064,-10.007124423980713,0.5494422912597656
1762170589.8271937,-13.0,-9.0,-1021.0,0,0,0,-4.2340919971466064,-10.007124423980713,0.5494422912597656
1762170589.9454062,5.0,-8.0,-1025.0,0,0,0,-4.2340919971466064,-10.007124423980713,0.5494422912597656
1762170590.0599256,2.0,4.0,-973.0,0,0,0,-4.2340919971466064,-10.007124423980713,0.5494422912597656
1762170590.161572,-4.0,-13.0,-970.0,0,0,0,-4.2340919971466064,-10.007124423980713,0.5494422912597656
1762170590.262378,4.0,-6.0,-993.0,0,0,0,-4.2340919971466064,-10.007124423980713,0.5494422912597656
1762170590.3625925,4.0,3.0,-996.0,0,0,0,-4.2340919971466064,-10.007124423980713,0.5494422912597656
1762170590.46292,-1.0,5.0,-980.0,0,0,0,-4.2340919971466064,-10.007124423980713,0.5494422912597656
1762170590.5632992,7.0,-13.0,-989.0,0,0,0,-4.2340919971466064,-10.007124423980713,0.5494422912597656
1762170590.6781225,16.0,-1.0,-978.0,0,0,0,-4.2340919971466064,-10.007124423980713,0.5494422912597656
1762170590.793025,0.0,-5.0,-1012.0,0,0,0,-4.2340919971466064,-10.007124423980713,0.5494422912597656
1762170590.893321,-12.0,-9.0,-997.0,0,0,0,-4.2340919971466064,-10.007124423980713,0.5494422912597656
1762170591.0109065,-7.0,-12.0,-1028.0,0,0,0,-4.2340919971466064,-10.007124423980713,0.5494422912597656
1762170591.1270301,-1.0,-19.0,-1003.0,0,0,0,-4.2340919971466064,-10.007124423980713,0.5494422912597656
1762170591.228062,5.0,14.0,-986.0,0,0,0,-4.2340919971466064,-10.007124423980713,0.5494422912597656
1762170591.3301756,0.0,-1.0,-1013.0,0,0,0,-4.2340919971466064,-10.007124423980713,0.5494422912597656
1762170591.4436736,-2.0,2.0,-965.0,0,0,0,-4.2340919971466064,-10.007124423980713,0.5494422912597656
1762170591.559175,8.0,16.0,-994.0,0,0,0,-4.2340919971466064,-10.007124423980713,0.5494422912597656
1762170591.677834,-6.0,2.0,-992.0,0,0,0,-4.2340919971466064,-10.007124423980713,0.5494422912597656
1762170591.7785802,4.0,-19.0,-1004.0,0,0,0,-4.2340919971466064,-10.007124423980713,0.5494422912597656
1762170591.8934991,-5.0,-4.0,-1002.0,0,0,0,-4.2340919971466064,-10.007124423980713,0.5494422912597656
1762170591.9947808,9.0,-12.0,-969.0,0,0,0,-4.2340919971466064,-10.007124423980713,0.5494422912597656
1762170592.1116095,13.0,13.0,-997.0,0,0,0,-4.2340919971466064,-10.007124423980713,0.5494422912597656
1762170592.2119365,-6.0,24.0,-993.0,0,0,0,-4.2340919971466064,-10.007124423980713,0.5494422912597656
1762170592.3127234,3.0,6.0,-1014.0,0,0,0,-4.2340919971466064,-10.007124423980713,0.5494422912597656
1762170592.4149914,8.0,12.0,-1056.0,0,0,0,-4.2340919971466064,-10.007124423980713,0.5494422912597656
1762170592.5276275,5.0,11.0,-1018.0,0,0,0,-4.2340919971466064,-10.007124423980713,0.5494422912597656
1762170592.6411026,1.0,-18.0,-975.0,0,0,0,-4.2340919971466064,-10.007124423980713,0.5494422912597656
1762170592.7423604,3.0,7.0,-969.0,0,0,0,-4.2340919971466064,-10.007124423980713,0.5494422912597656
1762170592.857055,0.0,-24.0,-1000.0,0,0,0,-4.2340919971466064,-10.007124423980713,0.5494422912597656
1762170592.961043,12.0,-1.0,-1001.0,0,0,0,-4.2340919971466064,-10.007124423980713,0.5494422912597656
1762170593.0763922,7.0,-15.0,-1006.0,0,0,0,-4.2340919971466064,-10.007124423980713,0.5494422912597656
1762170593.1776094,-5.0,-24.0,-991.0,0,0,0,-4.2340919971466064,-10.007124423980713,0.5494422912597656
1762170593.2794638,-1.0,-16.0,-997.0,0,0,-1,-4.2340919971466064,-10.007124423980713,0.4475879669189453
1762170593.394305,14.0,17.0,-948.0,0,0,-3,-4.2340919971466064,-10.007124423980713,0.10306429862976074
1762170593.4954865,-9.0,-16.0,-941.0,0,0,-3,-4.2340919971466064,-10.007124423980713,-0.20048022270202637
1762170593.610727,11.0,-12.0,-951.0,0,0,-4,-4.2340919971466064,-10.007124423980713,-0.6614425182342529
1762170593.711282,5.0,2.0,-990.0,0,0,-4,-4.2340919971466064,-10.007124423980713,-1.0636622905731201
1762170593.8269145,-3.0,15.0,-990.0,0,0,-5,-4.2340919971466064,-10.007124423980713,-1.6418249607086182
1762170593.9419036,4.0,-8.0,-964.0,0,0,-5,-4.2340919971466064,-10.007124423980713,-2.2167701721191406
1762170594.054976,-2.0,-14.0,-1030.0,0,0,-5,-4.2340919971466064,-10.007124423980713,-2.782132148742676
1762170594.166856,-8.0,-9.0,-1035.0,0,0,-5,-4.2340919971466064,-10.007124423980713,-3.3415324687957764
1762170594.2790282,7.0,-16.0,-1033.0,0,0,-4,-4.2340919971466064,-10.007124423980713,-3.7902209758758545
1762170594.394299,-8.0,0.0,-1019.0,0,0,-4,-4.2340919971466064,-10.007124423980713,-4.251304388046265
1762170594.5070016,-9.0,-23.0,-1017.0,0,0,-4,-4.2340919971466064,-10.007124423980713,-4.702114820480347
1762170594.6184905,0.0,-20.0,-1043.0,0,0,-4,-4.2340919971466064,-10.007124423980713,-5.1480700969696045
1762170594.7318995,0.0,-13.0,-1013.0,0,0,-4,-4.2340919971466064,-10.007124423980713,-5.601706266403198
1762170594.8444498,15.0,-25.0,-1068.0,0,0,-3,-4.2340919971466064,-10.007124423980713,-5.939357042312622
1762170594.9578943,-1.0,2.0,-1082.0,0,0,-3,-4.2340919971466064,-10.007124423980713,-6.279690742492676
1762170595.0705876,-8.0,-23.0,-1123.0,0,0,-2,-4.2340919971466064,-10.007124423980713,-6.505077362060547
1762170595.1827679,-3.0,-12.0,-1047.0,0,0,0,-4.2340919971466064,-10.007124423980713,-6.505077362060547
1762170595.2956147,-6.0,-6.0,-947.0,0,0,0,-4.2340919971466064,-10.007124423980713,-6.505077362060547
1762170595.4078965,-6.0,-10.0,-950.0,0,0,0,-4.2340919971466064,-10.007124423980713,-6.505077362060547
1762170595.5095086,43.0,-13.0,-1244.0,0,0,0,-4.2340919971466064,-10.007124423980713,-6.505077362060547
1762170595.6218114,65.0,-33.0,-970.0,0,0,0,-4.2340919971466064,-10.007124423980713,-6.505077362060547
1762170595.7342522,21.0,-11.0,-1017.0,0,0,0,-4.2340919971466064,-10.007124423980713,-6.505077362060547
1762170595.846013,-2.0,-17.0,-981.0,0,0,0,-4.2340919971466064,-10.007124423980713,-6.505077362060547
1762170595.960003,10.0,-10.0,-1000.0,0,0,0,-4.2340919971466064,-10.007124423980713,-6.505077362060547
1762170596.0737338,3.0,-3.0,-984.0,0,0,0,-4.2340919971466064,-10.007124423980713,-6.505077362060547
1762170596.1862957,-7.0,-7.0,-988.0,0,0,0,-4.2340919971466064,-10.007124423980713,-6.505077362060547
1762170596.298945,-6.0,-4.0,-998.0,0,0,0,-4.2340919971466064,-10.007124423980713,-6.505077362060547
1762170596.4111774,6.0,-1.0,-1006.0,0,0,0,-4.2340919971466064,-10.007124423980713,-6.505077362060547
1762170596.5259674,-9.0,-6.0,-998.0,-1,1,0,-4.348881959915161,-9.892334461212158,-6.505077362060547
1762170596.6376145,3.0,-7.0,-993.0,-1,1,0,-4.460529088973999,-9.78068733215332,-6.505077362060547
1762170596.7497435,-5.0,-8.0,-999.0,-1,1,0,-4.572658061981201,-9.668558359146118,-6.505077362060547
1762170596.8616047,-4.0,-5.0,-1006.0,0,0,1,-4.572658061981201,-9.668558359146118,-6.393216133117676
1762170596.9736202,-1.0,-6.0,-1002.0,0,0,1,-4.572658061981201,-9.668558359146118,-6.281200647354126
1762170597.0753593,1.0,-6.0,-1003.0,0,0,1,-4.572658061981201,-9.668558359146118,-6.179461479187012
1762170597.1887188,-1.0,-3.0,-1007.0,0,0,2,-4.572658061981201,-9.668558359146118,-5.952742576599121
1762170597.3005712,0.0,-7.0,-1006.0,0,0,2,-4.572658061981201,-9.668558359146118,-5.729037761688232
1762170597.4127173,2.0,-1.0,-1005.0,0,0,3,-4.572658061981201,-9.668558359146118,-5.39259934425354
1762170597.5258934,1.0,-6.0,-1008.0,0,0,3,-4.572658061981201,-9.668558359146118,-5.053071022033691
1762170597.6417284,4.0,-5.0,-1004.0,0,0,3,-4.572658061981201,-9.668558359146118,-4.705566167831421
1762170597.7536364,1.0,0.0,-1005.0,0,0,3,-4.572658061981201,-9.668558359146118,-4.369842290878296
1762170597.8663104,2.0,-2.0,-1010.0,0,0,3,-4.572658061981201,-9.668558359146118,-4.031820297241211
1762170597.978692,-1.0,-3.0,-1007.0,0,0,3,-4.572658061981201,-9.668558359146118,-3.6946752071380615
1762170598.092889,1.0,0.0,-1008.0,0,0,3,-4.572658061981201,-9.668558359146118,-3.352084159851074
1762170598.2049904,2.0,0.0,-1005.0,0,0,4,-4.572658061981201,-9.668558359146118,-2.9036788940429688
1762170598.3173504,0.0,0.0,-1007.0,0,0,4,-4.572658061981201,-9.668558359146118,-2.4542388916015625
1762170598.4291415,1.0,-3.0,-1010.0,0,0,4,-4.572658061981201,-9.668558359146118,-2.0070743560791016
1762170598.5413334,-1.0,-2.0,-1009.0,0,0,4,-4.572658061981201,-9.668558359146118,-1.5583066940307617
1762170598.6567008,2.0,0.0,-1009.0,0,0,5,-4.572658061981201,-9.668558359146118,-0.9814696311950684
1762170598.7699726,0.0,-2.0,-1008.0,0,0,5,-4.572658061981201,-9.668558359146118,-0.41511106491088867
1762170598.8803833,0.0,-5.0,-1008.0,0,0,5,-4.572658061981201,-9.668558359146118,0.13694238662719727
1762170598.9923875,1.0,-3.0,-1008.0,0,0,5,-4.572658061981201,-9.668558359146118,0.6969637870788574
1762170599.1050797,0.0,-1.0,-1011.0,0,0,5,-4.572658061981201,-9.668558359146118,1.2604243755340576
1762170599.2080753,2.0,-3.0,-1011.0,0,0,6,-4.572658061981201,-9.668558359146118,1.8783981800079346
1762170599.3212855,1.0,-4.0,-1009.0,0,0,6,-4.572658061981201,-9.668558359146118,2.557659387588501
1762170599.432795,1.0,-3.0,-1010.0,0,0,6,-4.572658061981201,-9.668558359146118,3.2267167568206787
1762170599.5445368,2.0,-2.0,-1012.0,0,0,6,-4.572658061981201,-9.668558359146118,3.897167444229126
1762170599.6601436,4.0,-3.0,-1009.0,0,0,6,-4.572658061981201,-9.668558359146118,4.590808153152466
1762170599.7737043,1.0,-2.0,-1010.0,0,0,6,-4.572658061981201,-9.668558359146118,5.272172212600708
1762170599.8865452,1.0,-5.0,-1011.0,0,0,6,-4.572658061981201,-9.668558359146118,5.9492175579071045
1762170599.999155,2.0,-3.0,-1008.0,0,0,6,-4.572658061981201,-9.668558359146118,6.6248767375946045
1762170600.1107724,1.0,-3.0,-1011.0,0,0,6,-4.572658061981201,-9.668558359146118,7.294580698013306
1762170600.2120008,1.0,-1.0,-1010.0,0,0,6,-4.572658061981201,-9.668558359146118,7.901951551437378
1762170600.3276067,2.0,-2.0,-1009.0,0,0,6,-4.572658061981201,-9.668558359146118,8.59558653831482
1762170600.4437783,0.0,-3.0,-1007.0,0,0,5,-4.572658061981201,-9.668558359146118,9.17644453048706
1762170600.545355,3.0,-2.0,-1006.0,0,0,5,-4.572658061981201,-9.668558359146118,9.684328556060791
1762170600.6609464,1.0,-2.0,-1009.0,0,0,5,-4.572658061981201,-9.668558359146118,10.262284994125366
1762170600.7624056,2.0,-6.0,-1008.0,0,0,5,-4.572658061981201,-9.668558359146118,10.769581317901611
1762170600.8775303,0.0,-4.0,-1011.0,0,0,5,-4.572658061981201,-9.668558359146118,11.345204830169678
1762170600.9896176,1.0,-4.0,-1003.0,0,0,5,-4.572658061981201,-9.668558359146118,11.905641078948975
1762170601.1024752,0.0,-2.0,-1009.0,0,0,5,-4.572658061981201,-9.668558359146118,12.469928979873657
1762170601.2146785,0.0,-6.0,-1011.0,0,0,5,-4.572658061981201,-9.668558359146118,13.030945777893066
1762170601.32497,2.0,-1.0,-1006.0,0,0,5,-4.572658061981201,-9.668558359146118,13.582403182983398
1762170601.4376068,0.0,-5.0,-1006.0,0,0,5,-4.572658061981201,-9.668558359146118,14.14558720588684
1762170601.549627,1.0,-5.0,-1010.0,0,0,5,-4.572658061981201,-9.668558359146118,14.7056884765625
1762170601.6611593,0.0,-3.0,-1005.0,0,0,4,-4.572658061981201,-9.668558359146118,15.151817321777344
1762170601.7733626,1.0,-6.0,-1007.0,0,0,4,-4.572658061981201,-9.668558359146118,15.600630760192871
1762170601.8739932,0.0,-1.0,-1008.0,0,0,4,-4.572658061981201,-9.668558359146118,16.00315284729004
1762170601.9856918,2.0,-2.0,-1008.0,0,0,4,-4.572658061981201,-9.668558359146118,16.449947357177734
1762170602.0979867,0.0,-2.0,-1008.0,0,0,4,-4.572658061981201,-9.668558359146118,16.89912700653076
1762170602.2109313,0.0,-4.0,-1006.0,0,0,4,-4.572658061981201,-9.668558359146118,17.350905418395996
1762170602.3257551,2.0,-2.0,-1006.0,0,0,4,-4.572658061981201,-9.668558359146118,17.810200691223145
1762170602.4384062,3.0,-4.0,-1004.0,0,0,4,-4.572658061981201,-9.668558359146118,18.260805130004883
1762170602.551478,1.0,-6.0,-1005.0,0,0,4,-4.572658061981201,-9.668558359146118,18.71309185028076
1762170602.664013,1.0,-2.0,-1002.0,0,0,3,-4.572658061981201,-9.668558359146118,19.050696849822998
1762170602.7755618,0.0,-4.0,-1003.0,0,0,3,-4.572658061981201,-9.668558359146118,19.385343551635742
1762170602.876432,0.0,0.0,-1003.0,0,0,3,-4.572658061981201,-9.668558359146118,19.68795394897461
1762170602.989434,2.0,-2.0,-1004.0,0,0,3,-4.572658061981201,-9.668558359146118,20.026960134506226
1762170603.1022842,2.0,-1.0,-999.0,0,0,3,-4.572658061981201,-9.668558359146118,20.36551070213318
1762170603.2152433,4.0,-1.0,-1003.0,0,0,3,-4.572658061981201,-9.668558359146118,20.70438814163208
1762170603.3268073,3.0,0.0,-1002.0,0,0,3,-4.572658061981201,-9.668558359146118,21.039079904556274
1762170603.441141,3.0,-2.0,-1003.0,0,0,3,-4.572658061981201,-9.668558359146118,21.382080793380737
1762170603.552411,2.0,-3.0,-1001.0,0,0,3,-4.572658061981201,-9.668558359146118,21.715891361236572
1762170603.6647122,0.0,-2.0,-1004.0,0,0,3,-4.572658061981201,-9.668558359146118,22.052794694900513
1762170603.777114,0.0,-6.0,-1003.0,0,0,3,-4.572658061981201,-9.668558359146118,22.389999866485596
1762170603.8905206,0.0,-4.0,-1001.0,0,0,3,-4.572658061981201,-9.668558359146118,22.730219841003418
1762170604.0071952,0.0,-4.0,-1002.0,0,0,3,-4.572658061981201,-9.668558359146118,23.080243825912476
1762170604.1195247,2.0,-4.0,-1005.0,0,0,3,-4.572658061981201,-9.668558359146118,23.417232275009155
1762170604.232022,1.0,-3.0,-1004.0,0,0,2,-4.572658061981201,-9.668558359146118,23.642226934432983
1762170604.343145,2.0,0.0,-999.0,0,0,2,-4.572658061981201,-9.668558359146118,23.86447262763977
1762170604.443829,1.0,-3.0,-1000.0,0,0,2,-4.572658061981201,-9.668558359146118,24.06584095954895
1762170604.5556936,1.0,-6.0,-998.0,0,0,2,-4.572658061981201,-9.668558359146118,24.289570093154907
1762170604.6676877,0.0,-1.0,-1000.0,0,0,2,-4.572658061981201,-9.668558359146118,24.51355814933777
1762170604.77953,1.0,-5.0,-1001.0,0,0,2,-4.572658061981201,-9.668558359146118,24.737242937088013
1762170604.8917563,0.0,-3.0,-1000.0,0,0,2,-4.572658061981201,-9.668558359146118,24.961695432662964
1762170604.9935677,2.0,-2.0,-1001.0,0,0,2,-4.572658061981201,-9.668558359146118,25.165318250656128
1762170605.1065445,1.0,-3.0,-997.0,0,0,2,-4.572658061981201,-9.668558359146118,25.391271829605103
1762170605.2196078,2.0,-3.0,-1002.0,0,0,2,-4.572658061981201,-9.668558359146118,25.617398500442505
1762170605.331687,3.0,-2.0,-998.0,0,0,2,-4.572658061981201,-9.668558359146118,25.841556787490845
1762170605.4435484,-1.0,-2.0,-997.0,0,0,1,-4.572658061981201,-9.668558359146118,25.953418254852295
1762170605.5581403,0.0,-6.0,-999.0,0,0,1,-4.572658061981201,-9.668558359146118,26.068010091781616
1762170605.6614428,2.0,-1.0,-999.0,0,0,1,-4.572658061981201,-9.668558359146118,26.1713125705719
1762170605.775865,2.0,-5.0,-997.0,0,0,0,-4.572658061981201,-9.668558359146118,26.1713125705719
1762170605.8883514,3.0,-3.0,-996.0,0,0,0,-4.572658061981201,-9.668558359146118,26.1713125705719
1762170605.9999573,0.0,-6.0,-999.0,0,0,0,-4.572658061981201,-9.668558359146118,26.1713125705719
1762170606.110595,0.0,-3.0,-998.0,0,0,0,-4.572658061981201,-9.668558359146118,26.1713125705719
1762170606.2120461,1.0,-3.0,-996.0,0,0,0,-4.572658061981201,-9.668558359146118,26.1713125705719
1762170606.3275464,0.0,-3.0,-998.0,0,0,0,-4.572658061981201,-9.668558359146118,26.1713125705719
1762170606.4286594,1.0,-4.0,-997.0,0,0,0,-4.572658061981201,-9.668558359146118,26.1713125705719
1762170606.544958,1.0,-4.0,-998.0,0,0,0,-4.572658061981201,-9.668558359146118,26.1713125705719
1762170606.660539,0.0,-3.0,-1000.0,0,0,0,-4.572658061981201,-9.668558359146118,26.1713125705719
1762170606.7625391,0.0,-3.0,-997.0,0,0,0,-4.572658061981201,-9.668558359146118,26.1713125705719
1762170606.8778653,0.0,-3.0,-998.0,0,0,0,-4.572658061981201,-9.668558359146118,26.1713125705719
1762170606.9924247,1.0,-2.0,-998.0,0,0,0,-4.572658061981201,-9.668558359146118,26.1713125705719
1762170607.0937037,1.0,-4.0,-1001.0,0,0,0,-4.572658061981201,-9.668558359146118,26.1713125705719
1762170607.2063897,1.0,-2.0,-997.0,0,0,0,-4.572658061981201,-9.668558359146118,26.1713125705719
1762170607.3180993,2.0,-2.0,-998.0,0,0,0,-4.572658061981201,-9.668558359146118,26.1713125705719
1762170607.430753,0.0,-4.0,-998.0,0,0,0,-4.572658061981201,-9.668558359146118,26.1713125705719
1762170607.5427475,2.0,-4.0,-997.0,0,0,0,-4.572658061981201,-9.668558359146118,26.1713125705719
1762170607.6585174,0.0,-2.0,-1000.0,0,0,0,-4.572658061981201,-9.668558359146118,26.1713125705719
1762170607.769943,1.0,-4.0,-997.0,0,0,0,-4.572658061981201,-9.668558359146118,26.1713125705719
1762170607.8808486,1.0,-1.0,-999.0,0,0,0,-4.572658061981201,-9.668558359146118,26.1713125705719
1762170607.9924636,1.0,-5.0,-1000.0,0,0,0,-4.572658061981201,-9.668558359146118,26.1713125705719
1762170608.1042595,1.0,-4.0,-997.0,0,0,0,-4.572658061981201,-9.668558359146118,26.1713125705719
1762170608.2083015,2.0,-4.0,-999.0,0,0,0,-4.572658061981201,-9.668558359146118,26.1713125705719
1762170608.3206632,2.0,-2.0,-997.0,0,0,0,-4.572658061981201,-9.668558359146118,26.1713125705719
1762170608.4327278,2.0,-3.0,-996.0,0,0,0,-4.572658061981201,-9.668558359146118,26.1713125705719
1762170608.5435236,1.0,-4.0,-999.0,0,0,0,-4.572658061981201,-9.668558359146118,26.1713125705719
1762170608.6559436,1.0,-4.0,-996.0,0,0,0,-4.572658061981201,-9.668558359146118,26.1713125705719
1762170608.757324,0.0,-4.0,-998.0,0,0,0,-4.572658061981201,-9.668558359146118,26.1713125705719
1762170608.8698466,1.0,-3.0,-999.0,0,0,0,-4.572658061981201,-9.668558359146118,26.1713125705719
1762170608.981952,1.0,-5.0,-997.0,0,0,0,-4.572658061981201,-9.668558359146118,26.1713125705719
1762170609.0934167,1.0,-4.0,-999.0,0,0,0,-4.572658061981201,-9.668558359146118,26.1713125705719
1762170609.1945062,1.0,-3.0,-999.0,0,0,0,-4.572658061981201,-9.668558359146118,26.1713125705719
1762170609.306264,1.0,-2.0,-996.0,0,0,0,-4.572658061981201,-9.668558359146118,26.1713125705719
1762170609.4185221,0.0,-3.0,-998.0,0,0,0,-4.572658061981201,-9.668558359146118,26.1713125705719
1762170609.5303137,1.0,-3.0,-995.0,0,0,0,-4.572658061981201,-9.668558359146118,26.1713125705719
1762170609.642363,1.0,-3.0,-996.0,0,0,0,-4.572658061981201,-9.668558359146118,26.1713125705719
1762170609.7589076,2.0,-4.0,-998.0,0,0,0,-4.572658061981201,-9.668558359146118,26.1713125705719
1762170609.8713434,2.0,-4.0,-1000.0,0,0,0,-4.572658061981201,-9.668558359146118,26.1713125705719
1762170609.9843965,1.0,-2.0,-1000.0,0,0,0,-4.572658061981201,-9.668558359146118,26.1713125705719
1762170610.096405,1.0,-3.0,-997.0,0,0,0,-4.572658061981201,-9.668558359146118,26.1713125705719
1762170610.2083642,0.0,-4.0,-1002.0,0,0,0,-4.572658061981201,-9.668558359146118,26.1713125705719
1762170610.3246202,0.0,-3.0,-1001.0,0,0,0,-4.572658061981201,-9.668558359146118,26.1713125705719
1762170610.4368207,1.0,-4.0,-998.0,0,0,0,-4.572658061981201,-9.668558359146118,26.1713125705719
1762170610.5489955,1.0,-3.0,-997.0,0,0,0,-4.572658061981201,-9.668558359146118,26.1713125705719
1762170610.6605344,1.0,-3.0,-999.0,0,0,0,-4.572658061981201,-9.668558359146118,26.1713125705719
1762170610.7745478,1.0,-4.0,-998.0,0,0,0,-4.572658061981201,-9.668558359146118,26.1713125705719
1762170610.8901258,1.0,-3.0,-999.0,0,0,0,-4.572658061981201,-9.668558359146118,26.1713125705719
1762170611.0023563,0.0,-3.0,-999.0,0,0,0,-4.572658061981201,-9.668558359146118,26.1713125705719
1762170611.1144195,1.0,-3.0,-998.0,0,0,0,-4.572658061981201,-9.668558359146118,26.1713125705719
1762170611.2269166,0.0,-2.0,-997.0,0,0,0,-4.572658061981201,-9.668558359146118,26.1713125705719
1762170611.3430543,2.0,-5.0,-999.0,0,0,0,-4.572658061981201,-9.668558359146118,26.1713125705719
1762170611.4556696,2.0,-2.0,-998.0,0,0,0,-4.572658061981201,-9.668558359146118,26.1713125705719
1762170611.5674067,1.0,-3.0,-999.0,0,0,0,-4.572658061981201,-9.668558359146118,26.1713125705719
1762170611.6775043,1.0,-3.0,-1000.0,0,0,0,-4.572658061981201,-9.668558359146118,26.1713125705719
1762170611.7894676,0.0,-3.0,-1000.0,0,0,0,-4.572658061981201,-9.668558359146118,26.1713125705719
1762170611.8924499,1.0,-3.0,-996.0,0,0,0,-4.572658061981201,-9.668558359146118,26.1713125705719
1762170612.0035703,0.0,-4.0,-997.0,0,0,0,-4.572658061981201,-9.668558359146118,26.1713125705719
1762170612.1150548,2.0,-2.0,-1000.0,0,0,0,-4.572658061981201,-9.668558359146118,26.1713125705719
1762170612.2269957,0.0,-3.0,-1000.0,0,0,0,-4.572658061981201,-9.668558359146118,26.1713125705719
1762170612.3395932,1.0,-3.0,-997.0,0,0,0,-4.572658061981201,-9.668558359146118,26.1713125705719
1762170612.4421718,1.0,-4.0,-998.0,0,0,0,-4.572658061981201,-9.668558359146118,26.1713125705719
1762170612.5549493,1.0,-3.0,-999.0,0,0,0,-4.572658061981201,-9.668558359146118,26.1713125705719
1762170612.6679142,2.0,-1.0,-999.0,0,0,0,-4.572658061981201,-9.668558359146118,26.1713125705719
1762170612.7801278,0.0,-3.0,-998.0,0,0,0,-4.572658061981201,-9.668558359146118,26.1713125705719
1762170612.8918982,0.0,-3.0,-998.0,0,0,0,-4.572658061981201,-9.668558359146118,26.1713125705719
1762170612.9936736,2.0,-4.0,-1000.0,0,0,0,-4.572658061981201,-9.668558359146118,26.1713125705719
1762170613.105913,2.0,-4.0,-998.0,0,0,0,-4.572658061981201,-9.668558359146118,26.1713125705719
1762170613.2172403,0.0,-4.0,-998.0,0,0,0,-4.572658061981201,-9.668558359146118,26.1713125705719
1762170613.3289306,2.0,-2.0,-999.0,0,0,0,-4.572658061981201,-9.668558359146118,26.1713125705719
1762170613.4441056,0.0,-3.0,-1001.0,0,0,0,-4.572658061981201,-9.668558359146118,26.1713125705719
1762170613.5567296,0.0,-3.0,-995.0,0,0,0,-4.572658061981201,-9.668558359146118,26.1713125705719
1762170613.6682987,0.0,-2.0,-999.0,0,0,0,-4.572658061981201,-9.668558359146118,26.1713125705719
1762170613.7810194,1.0,-3.0,-999.0,0,0,0,-4.572658061981201,-9.668558359146118,26.1713125705719
1762170613.8926544,0.0,-4.0,-998.0,0,0,0,-4.572658061981201,-9.668558359146118,26.1713125705719
1762170614.0081928,0.0,-3.0,-997.0,0,0,0,-4.572658061981201,-9.668558359146118,26.1713125705719
1762170614.1203132,1.0,-3.0,-999.0,0,0,0,-4.572658061981201,-9.668558359146118,26.1713125705719
1762170614.2323086,1.0,-3.0,-1000.0,0,0,0,-4.572658061981201,-9.668558359146118,26.1713125705719
1762170614.344424,2.0,-5.0,-998.0,0,0,0,-4.572658061981201,-9.668558359146118,26.1713125705719
1762170614.4557486,1.0,-2.0,-998.0,0,0,0,-4.572658061981201,-9.668558359146118,26.1713125705719
1762170614.5583715,1.0,-4.0,-998.0,0,0,0,-4.572658061981201,-9.668558359146118,26.1713125705719
1762170614.670052,1.0,-2.0,-1001.0,0,0,0,-4.572658061981201,-9.668558359146118,26.1713125705719
1762170614.782443,0.0,-3.0,-999.0,0,0,0,-4.572658061981201,-9.668558359146118,26.1713125705719
1762170614.8943343,1.0,-3.0,-998.0,0,0,0,-4.572658061981201,-9.668558359146118,26.1713125705719
1762170615.0065968,0.0,-2.0,-998.0,0,0,0,-4.572658061981201,-9.668558359146118,26.1713125705719
1762170615.1082447,0.0,-4.0,-997.0,0,0,0,-4.572658061981201,-9.668558359146118,26.1713125705719
1762170615.2200973,1.0,-3.0,-1000.0,0,0,0,-4.572658061981201,-9.668558359146118,26.1713125705719
1762170615.3321226,1.0,-2.0,-999.0,0,0,0,-4.572658061981201,-9.668558359146118,26.1713125705719
1762170615.4447422,1.0,-4.0,-999.0,0,0,0,-4.572658061981201,-9.668558359146118,26.1713125705719
1762170615.5610466,0.0,-3.0,-1001.0,0,0,0,-4.572658061981201,-9.668558359146118,26.1713125705719
1762170615.674729,2.0,-4.0,-1001.0,0,0,0,-4.572658061981201,-9.668558359146118,26.1713125705719
1762170615.7849813,0.0,-3.0,-999.0,0,0,0,-4.572658061981201,-9.668558359146118,26.1713125705719
1762170615.8975227,1.0,-2.0,-1000.0,0,0,0,-4.572658061981201,-9.668558359146118,26.1713125705719
1762170616.0098038,0.0,-3.0,-997.0,0,0,0,-4.572658061981201,-9.668558359146118,26.1713125705719
1762170616.1249962,0.0,-3.0,-999.0,0,0,0,-4.572658061981201,-9.668558359146118,26.1713125705719
1762170616.2376797,2.0,-1.0,-999.0,0,0,0,-4.572658061981201,-9.668558359146118,26.1713125705719
1762170616.3497028,2.0,-1.0,-1000.0,0,0,0,-4.572658061981201,-9.668558359146118,26.1713125705719
1762170616.4617286,1.0,-2.0,-999.0,0,0,0,-4.572658061981201,-9.668558359146118,26.1713125705719
1762170616.5734353,0.0,-2.0,-1001.0,0,0,0,-4.572658061981201,-9.668558359146118,26.1713125705719
1762170616.6761725,0.0,-5.0,-998.0,0,0,0,-4.572658061981201,-9.668558359146118,26.1713125705719
1762170616.7884996,1.0,-4.0,-998.0,0,0,0,-4.572658061981201,-9.668558359146118,26.1713125705719
1762170616.900844,0.0,-3.0,-999.0,0,0,0,-4.572658061981201,-9.668558359146118,26.1713125705719
1762170617.0133,1.0,-3.0,-999.0,0,0,0,-4.572658061981201,-9.668558359146118,26.1713125705719
1762170617.1262195,2.0,-2.0,-997.0,0,0,0,-4.572658061981201,-9.668558359146118,26.1713125705719
1762170617.2422512,0.0,-3.0,-998.0,0,0,0,-4.572658061981201,-9.668558359146118,26.1713125705719
1762170617.3544898,1.0,-3.0,-1000.0,0,0,0,-4.572658061981201,-9.668558359146118,26.1713125705719
1762170617.4666724,2.0,-3.0,-1001.0,0,0,0,-4.572658061981201,-9.668558359146118,26.1713125705719
1762170617.5780513,1.0,-4.0,-996.0,0,0,0,-4.572658061981201,-9.668558359146118,26.1713125705719
1762170617.6937873,0.0,-3.0,-998.0,0,0,0,-4.572658061981201,-9.668558359146118,26.1713125705719
1762170617.805457,0.0,-3.0,-999.0,0,0,0,-4.572658061981201,-9.668558359146118,26.1713125705719
1762170617.918631,0.0,-3.0,-998.0,0,0,0,-4.572658061981201,-9.668558359146118,26.1713125705719
1762170618.0300493,2.0,-3.0,-999.0,0,0,0,-4.572658061981201,-9.668558359146118,26.1713125705719
1762170618.1417918,0.0,-2.0,-1000.0,0,0,0,-4.572658061981201,-9.668558359146118,26.1713125705719
