Time,Ax,Ay,Az,Sx,Sy,Sz,x,y,z
1762512697.7920775,-2.0,-1.0,-1000.0,0,0,0,0.0,0.0,0.0
1762512697.8933873,-3.0,-1.0,-1000.0,0,0,0,0.0,0.0,0.0
1762512697.9937868,-2.0,-3.0,-1000.0,0,0,0,0.0,0.0,0.0
1762512698.0939188,0.0,-1.0,-1000.0,0,0,0,0.0,0.0,0.0
1762512698.1942856,-2.0,-4.0,-998.0,0,0,0,0.0,0.0,0.0
1762512698.2949355,-2.0,-4.0,-998.0,0,0,0,0.0,0.0,0.0
1762512698.395344,-2.0,-1.0,-1000.0,0,0,0,0.0,0.0,0.0
1762512698.49562,-1.0,-2.0,-999.0,0,0,0,0.0,0.0,0.0
1762512698.5961764,-1.0,-3.0,-999.0,0,0,0,0.0,0.0,0.0
1762512698.6964207,-1.0,-2.0,-999.0,0,0,0,0.0,0.0,0.0
1762512698.7967737,-2.0,-2.0,-996.0,0,0,0,0.0,0.0,0.0
1762512698.8971608,-2.0,0.0,-997.0,0,0,0,0.0,0.0,0.0
1762512698.9973156,-2.0,-1.0,-1003.0,0,0,0,0.0,0.0,0.0
1762512699.0980473,0.0,-2.0,-1002.0,0,0,0,0.0,0.0,0.0
1762512699.1988134,0.0,-1.0,-1002.0,0,0,0,0.0,0.0,0.0
1762512699.2992435,-2.0,-1.0,-1000.0,0,0,0,0.0,0.0,0.0
1762512699.39943,-2.0,-3.0,-1003.0,0,0,0,0.0,0.0,0.0
1762512699.4996905,-1.0,-2.0,-999.0,0,0,0,0.0,0.0,0.0
1762512699.6000206,-2.0,-3.0,-997.0,0,0,0,0.0,0.0,0.0
1762512699.700195,-2.0,-2.0,-1002.0,0,0,0,0.0,0.0,0.0
1762512699.8005037,-1.0,-1.0,-997.0,0,0,0,0.0,0.0,0.0
1762512699.9007347,-1.0,-2.0,-998.0,0,0,0,0.0,0.0,0.0
1762512700.0010498,-1.0,-2.0,-1000.0,0,0,0,0.0,0.0,0.0
1762512700.101548,-1.0,-2.0,-1004.0,0,0,0,0.0,0.0,0.0
1762512700.202032,-1.0,0.0,-1001.0,0,0,0,0.0,0.0,0.0
1762512700.3022816,-1.0,-1.0,-1002.0,0,0,0,0.0,0.0,0.0
1762512700.402485,-2.0,-1.0,-998.0,0,0,0,0.0,0.0,0.0
1762512700.5028718,-1.0,-1.0,-998.0,0,0,0,0.0,0.0,0.0
1762512700.603353,-1.0,-2.0,-999.0,0,0,0,0.0,0.0,0.0
1762512700.7036517,0.0,-2.0,-996.0,0,0,0,0.0,0.0,0.0
1762512700.8040028,-1.0,-2.0,-999.0,0,0,0,0.0,0.0,0.0
1762512700.9043748,-2.0,-2.0,-998.0,0,0,0,0.0,0.0,0.0
1762512701.0047514,-1.0,-2.0,-1001.0,0,0,0,0.0,0.0,0.0
1762512701.1053574,-8.0,-8.0,-994.0,0,0,0,0.0,0.0,0.0
1762512701.2056758,10.0,-3.0,-1002.0,0,0,0,0.0,0.0,0.0
1762512701.306004,-11.0,0.0,-996.0,0,0,0,0.0,0.0,0.0
1762512701.4064362,15.0,-9.0,-1006.0,0,0,0,0.0,0.0,0.0
1762512701.507051,1.0,-9.0,-991.0,0,0,0,0.0,0.0,0.0
1762512701.6075695,-17.0,-4.0,-1037.0,0,0,0,0.0,0.0,0.0
1762512701.7080395,-5.0,6.0,-1087.0,0,0,1,0.0,0.0,0.10047006607055664
1762512701.8084605,-23.0,11.0,-1164.0,0,0,2,0.0,0.0,0.3013119697570801
1762512701.909002,-8.0,-1.0,-1142.0,0,0,4,0.0,0.0,0.7034783363342285
1762512702.0095642,-5.0,-10.0,-1045.0,0,0,5,0.0,0.0,1.2062888145446777
1762512702.1099248,-1.0,3.0,-1021.0,0,0,5,0.0,0.0,1.7080919742584229
1762512702.2102787,-21.0,2.0,-998.0,0,0,5,0.0,0.0,2.2098617553710938
1762512702.3110707,1.0,16.0,-994.0,0,0,5,0.0,0.0,2.7138214111328125
1762512702.411706,-6.0,4.0,-1000.0,0,0,4,0.0,0.0,3.1163625717163086
1762512702.5121572,-36.0,-2.0,-985.0,0,0,4,0.0,0.0,3.518167495727539
1762512702.6129582,-17.0,-1.0,-988.0,0,0,4,0.0,0.0,3.9213714599609375
1762512702.7135515,-15.0,9.0,-973.0,0,0,4,0.0,0.0,4.323744773864746
1762512702.8142374,-32.0,-5.0,-966.0,0,0,4,0.0,0.0,4.72648811340332
1762512702.914885,-4.0,-6.0,-987.0,0,0,3,0.0,0.0,5.028431177139282
1762512703.0157566,-16.0,-3.0,-970.0,0,0,3,0.0,0.0,5.331045866012573
1762512703.1161304,-35.0,-2.0,-976.0,0,0,3,0.0,0.0,5.632167100906372
1762512703.2166405,-36.0,-15.0,-976.0,0,0,2,0.0,0.0,5.8331873416900635
1762512703.316976,-26.0,-7.0,-951.0,0,0,2,0.0,0.0,6.03385853767395
1762512703.4176204,-21.0,16.0,-971.0,0,0,2,0.0,0.0,6.23514723777771
1762512703.5181015,-25.0,2.0,-969.0,0,0,1,0.0,0.0,6.335628271102905
1762512703.6186168,-35.0,17.0,-982.0,0,0,1,0.0,0.0,6.436143636703491
1762512703.718898,-5.0,8.0,-976.0,0,0,1,0.0,0.0,6.536424875259399
1762512703.8191996,-8.0,0.0,-950.0,0,0,1,0.0,0.0,6.636726379394531
1762512703.9194863,-11.0,14.0,-976.0,0,0,1,0.0,0.0,6.737013101577759
1762512704.0200677,-14.0,20.0,-989.0,0,0,0,0.0,0.0,6.737013101577759
1762512704.1205404,-30.0,-1.0,-983.0,0,0,0,0.0,0.0,6.737013101577759
1762512704.2210224,-21.0,16.0,-986.0,0,0,0,0.0,0.0,6.737013101577759
1762512704.3213387,-27.0,0.0,-1000.0,0,0,0,0.0,0.0,6.737013101577759
1762512704.4220083,-51.0,10.0,-975.0,0,0,0,0.0,0.0,6.737013101577759
1762512704.5224328,-30.0,-7.0,-996.0,0,0,0,0.0,0.0,6.737013101577759
1762512704.62272,-33.0,19.0,-988.0,0,0,0,0.0,0.0,6.737013101577759
1762512704.7235508,-29.0,7.0,-1015.0,0,0,0,0.0,0.0,6.737013101577759
1762512704.8245006,-23.0,-13.0,-999.0,0,0,0,0.0,0.0,6.737013101577759
1762512704.9257545,-10.0,11.0,-1018.0,0,0,0,0.0,0.0,6.737013101577759
1762512705.0264623,-36.0,-8.0,-1002.0,0,0,0,0.0,0.0,6.737013101577759
1762512705.126749,-28.0,6.0,-1000.0,0,0,0,0.0,0.0,6.737013101577759
1762512705.2273955,-26.0,3.0,-988.0,0,0,0,0.0,0.0,6.737013101577759
1762512705.328046,-23.0,-7.0,-975.0,0,0,0,0.0,0.0,6.737013101577759
1762512705.4284656,-18.0,14.0,-1012.0,0,0,0,0.0,0.0,6.737013101577759
1762512705.5290382,-18.0,8.0,-974.0,0,0,0,0.0,0.0,6.737013101577759
1762512705.6297116,-31.0,5.0,-993.0,0,0,0,0.0,0.0,6.737013101577759
1762512705.73028,-21.0,-2.0,-988.0,0,0,0,0.0,0.0,6.737013101577759
1762512705.8310704,-22.0,11.0,-995.0,0,0,0,0.0,0.0,6.737013101577759
1762512705.9320705,-16.0,4.0,-983.0,0,0,0,0.0,0.0,6.737013101577759
1762512706.032908,-29.0,15.0,-978.0,0,0,0,0.0,0.0,6.737013101577759
1762512706.133471,-21.0,-1.0,-988.0,0,0,0,0.0,0.0,6.737013101577759
1762512706.2338738,-24.0,3.0,-1009.0,0,0,0,0.0,0.0,6.737013101577759
1762512706.334742,-19.0,21.0,-997.0,0,0,0,0.0,0.0,6.737013101577759
1762512706.4353728,-29.0,0.0,-996.0,0,0,0,0.0,0.0,6.737013101577759
1762512706.5361655,-35.0,-17.0,-1006.0,0,0,0,0.0,0.0,6.737013101577759
1762512706.6365275,-32.0,-7.0,-985.0,0,0,0,0.0,0.0,6.737013101577759
1762512706.7368677,-17.0,25.0,-1018.0,0,0,0,0.0,0.0,6.737013101577759
1762512706.8372192,-30.0,-3.0,-1020.0,0,0,0,0.0,0.0,6.737013101577759
1762512706.9375947,-21.0,-1.0,-983.0,0,0,0,0.0,0.0,6.737013101577759
1762512707.038183,-18.0,13.0,-1022.0,0,0,0,0.0,0.0,6.737013101577759
1762512707.1385567,-18.0,27.0,-1029.0,0,0,0,0.0,0.0,6.737013101577759
1762512707.238725,-30.0,0.0,-989.0,0,0,0,0.0,0.0,6.737013101577759
1762512707.3392868,-36.0,13.0,-982.0,0,0,0,0.0,0.0,6.737013101577759
1762512707.4398518,-18.0,4.0,-1000.0,0,0,0,0.0,0.0,6.737013101577759
1762512707.5405047,-33.0,3.0,-978.0,0,0,0,0.0,0.0,6.737013101577759
1762512707.6408362,-16.0,-2.0,-973.0,0,0,0,0.0,0.0,6.737013101577759
1762512707.7412753,-37.0,12.0,-988.0,0,0,0,0.0,0.0,6.737013101577759
1762512707.841738,-14.0,23.0,-979.0,0,0,0,0.0,0.0,6.737013101577759
1762512707.9424467,-19.0,13.0,-1033.0,0,0,0,0.0,0.0,6.737013101577759
1762512708.0431886,-6.0,4.0,-986.0,0,0,0,0.0,0.0,6.737013101577759
1762512708.1438293,-23.0,26.0,-1010.0,0,0,0,0.0,0.0,6.737013101577759
1762512708.244384,-28.0,13.0,-991.0,0,0,0,0.0,0.0,6.737013101577759
1762512708.344836,-27.0,-8.0,-1004.0,0,0,0,0.0,0.0,6.737013101577759
1762512708.445541,-39.0,0.0,-984.0,0,0,0,0.0,0.0,6.737013101577759
1762512708.5463033,-13.0,26.0,-979.0,0,0,0,0.0,0.0,6.737013101577759
1762512708.6470938,-13.0,-4.0,-1005.0,0,0,0,0.0,0.0,6.737013101577759
1762512708.7478228,-28.0,-14.0,-1004.0,0,0,0,0.0,0.0,6.737013101577759
1762512708.84815,-12.0,-5.0,-974.0,0,0,0,0.0,0.0,6.737013101577759
1762512708.9486482,-24.0,-19.0,-983.0,0,0,0,0.0,0.0,6.737013101577759
1762512709.0493264,-8.0,-3.0,-1025.0,0,0,0,0.0,0.0,6.737013101577759
1762512709.1495914,-22.0,-3.0,-983.0,0,0,0,0.0,0.0,6.737013101577759
1762512709.2500947,-20.0,-7.0,-998.0,0,0,0,0.0,0.0,6.737013101577759
1762512709.350843,-17.0,-1.0,-992.0,0,0,0,0.0,0.0,6.737013101577759
1762512709.451587,-15.0,-7.0,-1014.0,0,0,0,0.0,0.0,6.737013101577759
1762512709.552324,-11.0,3.0,-999.0,0,0,0,0.0,0.0,6.737013101577759
1762512709.6527348,9.0,5.0,-973.0,0,0,0,0.0,0.0,6.737013101577759
1762512709.7534764,-22.0,20.0,-960.0,0,0,0,0.0,0.0,6.737013101577759
1762512709.854405,-36.0,32.0,-986.0,0,0,0,0.0,0.0,6.737013101577759
1762512709.9549932,-27.0,-8.0,-1031.0,0,0,0,0.0,0.0,6.737013101577759
1762512710.0554316,-15.0,-4.0,-1017.0,0,0,0,0.0,0.0,6.737013101577759
1762512710.1558993,-21.0,4.0,-984.0,0,0,0,0.0,0.0,6.737013101577759
1762512710.2561138,-16.0,20.0,-996.0,0,0,0,0.0,0.0,6.737013101577759
1762512710.3564947,-6.0,0.0,-1005.0,0,0,0,0.0,0.0,6.737013101577759
1762512710.4572623,-28.0,-2.0,-1000.0,0,0,0,0.0,0.0,6.737013101577759
1762512710.5575318,-36.0,0.0,-1011.0,0,0,0,0.0,0.0,6.737013101577759
1762512710.6580164,-25.0,0.0,-979.0,0,0,0,0.0,0.0,6.737013101577759
1762512710.758366,-8.0,24.0,-990.0,0,0,0,0.0,0.0,6.737013101577759
1762512710.8587494,-26.0,0.0,-999.0,0,0,0,0.0,0.0,6.737013101577759
1762512710.9591126,-30.0,12.0,-1026.0,0,0,0,0.0,0.0,6.737013101577759
1762512711.059681,2.0,6.0,-985.0,0,0,0,0.0,0.0,6.737013101577759
1762512711.1604035,-22.0,-3.0,-1004.0,0,0,0,0.0,0.0,6.737013101577759
1762512711.2613013,-9.0,7.0,-997.0,0,0,0,0.0,0.0,6.737013101577759
1762512711.3620014,-24.0,-10.0,-983.0,0,0,0,0.0,0.0,6.737013101577759
1762512711.4627712,-23.0,-3.0,-1000.0,0,0,0,0.0,0.0,6.737013101577759
1762512711.5632977,-30.0,4.0,-981.0,0,0,0,0.0,0.0,6.737013101577759
1762512711.664231,-13.0,6.0,-1004.0,0,0,0,0.0,0.0,6.737013101577759
1762512711.7651367,0.0,2.0,-1004.0,0,0,0,0.0,0.0,6.737013101577759
1762512711.8658485,-7.0,-1.0,-1006.0,0,0,0,0.0,0.0,6.737013101577759
1762512711.966308,-18.0,-4.0,-1000.0,0,0,0,0.0,0.0,6.737013101577759
1762512712.0668178,-31.0,0.0,-1003.0,0,0,0,0.0,0.0,6.737013101577759
1762512712.1676955,-11.0,2.0,-1011.0,0,0,0,0.0,0.0,6.737013101577759
1762512712.267967,-9.0,8.0,-1009.0,0,0,0,0.0,0.0,6.737013101577759
1762512712.3684068,-15.0,5.0,-1009.0,0,0,0,0.0,0.0,6.737013101577759
1762512712.4692514,-11.0,-1.0,-994.0,0,0,0,0.0,0.0,6.737013101577759
1762512712.5699492,-5.0,1.0,-1001.0,0,0,0,0.0,0.0,6.737013101577759
1762512712.6708128,-26.0,0.0,-965.0,0,0,0,0.0,0.0,6.737013101577759
1762512712.7713807,-30.0,-1.0,-978.0,0,0,0,0.0,0.0,6.737013101577759
1762512712.8719351,-3.0,-1.0,-1010.0,0,0,0,0.0,0.0,6.737013101577759
1762512712.9723933,-26.0,4.0,-991.0,0,0,0,0.0,0.0,6.737013101577759
1762512713.0731702,0.0,4.0,-1007.0,0,0,0,0.0,0.0,6.737013101577759
1762512713.1736674,-17.0,3.0,-1008.0,0,0,0,0.0,0.0,6.737013101577759
1762512713.2743413,-11.0,4.0,-983.0,0,0,0,0.0,0.0,6.737013101577759
1762512713.3750107,-29.0,8.0,-1010.0,0,0,0,0.0,0.0,6.737013101577759
1762512713.4754567,-6.0,7.0,-1024.0,0,0,0,0.0,0.0,6.737013101577759
1762512713.5757668,-33.0,4.0,-1010.0,0,0,0,0.0,0.0,6.737013101577759
1762512713.6761668,-13.0,-6.0,-997.0,0,0,0,0.0,0.0,6.737013101577759
1762512713.776556,-32.0,11.0,-1020.0,1,0,0,0.10038924217224121,0.0,6.737013101577759
1762512713.877067,-45.0,-2.0,-984.0,1,0,0,0.20090031623840332,0.0,6.737013101577759
1762512713.9780543,-13.0,2.0,-1015.0,1,0,0,0.30188751220703125,0.0,6.737013101577759
1762512714.0787065,-32.0,-7.0,-989.0,0,0,0,0.30188751220703125,0.0,6.737013101577759
1762512714.1793246,-28.0,-3.0,-982.0,0,0,0,0.30188751220703125,0.0,6.737013101577759
1762512714.2798889,-10.0,4.0,-984.0,0,0,0,0.30188751220703125,0.0,6.737013101577759
1762512714.3804162,-25.0,-1.0,-1004.0,0,0,0,0.30188751220703125,0.0,6.737013101577759
1762512714.481337,0.0,0.0,-1013.0,0,0,0,0.30188751220703125,0.0,6.737013101577759
1762512714.5823123,-5.0,11.0,-1013.0,0,0,0,0.30188751220703125,0.0,6.737013101577759
1762512714.6828277,-24.0,3.0,-1029.0,0,0,0,0.30188751220703125,0.0,6.737013101577759
1762512714.783791,-17.0,3.0,-998.0,0,0,0,0.30188751220703125,0.0,6.737013101577759
1762512714.8840983,-20.0,6.0,-993.0,0,0,0,0.30188751220703125,0.0,6.737013101577759
1762512714.9849203,-13.0,21.0,-983.0,0,0,0,0.30188751220703125,0.0,6.737013101577759
1762512715.08563,-18.0,14.0,-987.0,0,0,0,0.30188751220703125,0.0,6.737013101577759
1762512715.186178,-9.0,8.0,-1003.0,0,0,0,0.30188751220703125,0.0,6.737013101577759
1762512715.2868824,-38.0,10.0,-1016.0,-1,0,0,0.20118308067321777,0.0,6.737013101577759
1762512715.3875709,25.0,17.0,-944.0,-2,0,0,-0.0001938343048095703,0.0,6.737013101577759
1762512715.4881902,-16.0,24.0,-1029.0,-2,0,0,-0.201432466506958,0.0,6.737013101577759
1762512715.5883958,-14.0,15.0,-1002.0,-2,0,0,-0.401843786239624,0.0,6.737013101577759
1762512715.6886656,-31.0,23.0,-994.0,-2,0,0,-0.6023833751678467,0.0,6.737013101577759
1762512715.7890208,-52.0,-8.0,-1017.0,-2,0,0,-0.803093671798706,0.0,6.737013101577759
1762512715.889663,-44.0,-14.0,-1040.0,-2,0,0,-1.004378080368042,0.0,6.737013101577759
1762512715.9902487,-38.0,6.0,-1008.0,-2,0,0,-1.2055494785308838,0.0,6.737013101577759
1762512716.0908678,-52.0,6.0,-997.0,-2,0,0,-1.406787633895874,0.0,6.737013101577759
1762512716.191125,-45.0,-11.0,-977.0,-2,0,0,-1.607301950454712,0.0,6.737013101577759
1762512716.2916548,-17.0,-9.0,-1000.0,-2,0,0,-1.8083617687225342,0.0,6.737013101577759
1762512716.3918333,-39.0,14.0,-1001.0,-3,0,0,-2.1088972091674805,0.0,6.737013101577759
1762512716.4923716,-37.0,-5.0,-984.0,-3,0,0,-2.4105119705200195,0.0,6.737013101577759
1762512716.592818,-28.0,2.0,-995.0,-3,0,0,-2.7118513584136963,0.0,6.737013101577759
1762512716.69317,-40.0,26.0,-1050.0,-2,0,0,-2.912555456161499,0.0,6.737013101577759
1762512716.7936482,-30.0,11.0,-1006.0,-1,0,0,-3.013033628463745,0.0,6.737013101577759
1762512716.8939283,-29.0,11.0,-979.0,-1,0,0,-3.113313674926758,0.0,6.737013101577759
1762512716.994231,-8.0,5.0,-1015.0,-1,0,0,-3.213616371154785,0.0,6.737013101577759
1762512717.094613,-27.0,6.0,-987.0,0,0,0,-3.213616371154785,0.0,6.737013101577759
1762512717.1950386,-37.0,-9.0,-1002.0,0,0,0,-3.213616371154785,0.0,6.737013101577759
1762512717.2954051,-2.0,13.0,-1012.0,0,0,0,-3.213616371154785,0.0,6.737013101577759
1762512717.3956454,-32.0,-2.0,-1010.0,0,0,0,-3.213616371154785,0.0,6.737013101577759
1762512717.4962618,0.0,4.0,-1018.0,0,0,0,-3.213616371154785,0.0,6.737013101577759
1762512717.5967002,-19.0,3.0,-995.0,0,0,0,-3.213616371154785,0.0,6.737013101577759
1762512717.6973567,-13.0,7.0,-981.0,0,0,0,-3.213616371154785,0.0,6.737013101577759
1762512717.7981462,-20.0,8.0,-1019.0,0,0,0,-3.213616371154785,0.0,6.737013101577759
1762512717.8986907,-6.0,7.0,-1011.0,0,0,0,-3.213616371154785,0.0,6.737013101577759
1762512717.9990532,-31.0,10.0,-1016.0,0,0,0,-3.213616371154785,0.0,6.737013101577759
1762512718.099338,-12.0,10.0,-996.0,0,0,0,-3.213616371154785,0.0,6.737013101577759
1762512718.1999724,0.0,4.0,-987.0,0,0,0,-3.213616371154785,0.0,6.737013101577759
1762512718.3006678,-19.0,6.0,-993.0,0,0,0,-3.213616371154785,0.0,6.737013101577759
1762512718.4011111,-17.0,5.0,-1006.0,0,0,0,-3.213616371154785,0.0,6.737013101577759
1762512718.5015793,-10.0,10.0,-978.0,0,0,0,-3.213616371154785,0.0,6.737013101577759
1762512718.6021533,-25.0,2.0,-997.0,0,0,0,-3.213616371154785,0.0,6.737013101577759
1762512718.7029665,-7.0,18.0,-997.0,0,0,0,-3.213616371154785,0.0,6.737013101577759
1762512718.803472,-22.0,1.0,-980.0,0,0,0,-3.213616371154785,0.0,6.737013101577759
1762512718.9039698,-15.0,19.0,-1017.0,0,0,0,-3.213616371154785,0.0,6.737013101577759
1762512719.0042496,-17.0,12.0,-988.0,0,0,0,-3.213616371154785,0.0,6.737013101577759
1762512719.1048121,-16.0,6.0,-995.0,0,0,0,-3.213616371154785,0.0,6.737013101577759
1762512719.2056239,-31.0,8.0,-996.0,0,0,0,-3.213616371154785,0.0,6.737013101577759
1762512719.3063445,-23.0,19.0,-996.0,0,0,0,-3.213616371154785,0.0,6.737013101577759
1762512719.4069018,-36.0,18.0,-1012.0,0,0,0,-3.213616371154785,0.0,6.737013101577759
1762512719.5072222,-15.0,6.0,-1020.0,0,0,0,-3.213616371154785,0.0,6.737013101577759
1762512719.607967,-21.0,8.0,-988.0,0,0,0,-3.213616371154785,0.0,6.737013101577759
1762512719.708735,-31.0,15.0,-984.0,0,0,0,-3.213616371154785,0.0,6.737013101577759
1762512719.8089442,-27.0,-10.0,-1002.0,0,0,0,-3.213616371154785,0.0,6.737013101577759
1762512719.909249,-21.0,11.0,-1018.0,0,0,0,-3.213616371154785,0.0,6.737013101577759
1762512720.0100386,-8.0,12.0,-994.0,0,0,0,-3.213616371154785,0.0,6.737013101577759
1762512720.1104875,-21.0,21.0,-989.0,0,0,0,-3.213616371154785,0.0,6.737013101577759
1762512720.2110903,-15.0,16.0,-979.0,0,0,0,-3.213616371154785,0.0,6.737013101577759
1762512720.3117282,10.0,10.0,-998.0,0,0,0,-3.213616371154785,0.0,6.737013101577759
1762512720.412184,-14.0,-8.0,-1012.0,0,0,0,-3.213616371154785,0.0,6.737013101577759
1762512720.5128164,-28.0,0.0,-1007.0,0,0,0,-3.213616371154785,0.0,6.737013101577759
1762512720.6135697,-29.0,-11.0,-995.0,0,0,0,-3.213616371154785,0.0,6.737013101577759
1762512720.7146485,-18.0,18.0,-1006.0,0,0,0,-3.213616371154785,0.0,6.737013101577759
1762512720.8152037,0.0,24.0,-995.0,0,0,0,-3.213616371154785,0.0,6.737013101577759
1762512720.9157243,-21.0,-21.0,-1020.0,0,0,0,-3.213616371154785,0.0,6.737013101577759
1762512721.016539,-27.0,7.0,-987.0,0,0,0,-3.213616371154785,0.0,6.737013101577759
1762512721.1169426,-6.0,41.0,-1033.0,0,0,0,-3.213616371154785,0.0,6.737013101577759
1762512721.2178698,-18.0,-14.0,-999.0,0,0,0,-3.213616371154785,0.0,6.737013101577759
1762512721.318454,0.0,10.0,-1006.0,0,0,0,-3.213616371154785,0.0,6.737013101577759
1762512721.4191117,-16.0,1.0,-972.0,0,0,0,-3.213616371154785,0.0,6.737013101577759
1762512721.5197186,-21.0,21.0,-996.0,0,0,0,-3.213616371154785,0.0,6.737013101577759
1762512721.6204255,-9.0,2.0,-1001.0,0,0,0,-3.213616371154785,0.0,6.737013101577759
1762512721.7211034,-27.0,-12.0,-1001.0,0,0,0,-3.213616371154785,0.0,6.737013101577759
1762512721.821483,-41.0,4.0,-959.0,0,0,0,-3.213616371154785,0.0,6.737013101577759
1762512721.921767,-42.0,27.0,-1002.0,0,0,0,-3.213616371154785,0.0,6.737013101577759
1762512722.022531,-36.0,15.0,-999.0,0,0,0,-3.213616371154785,0.0,6.737013101577759
1762512722.1233945,-4.0,9.0,-1022.0,0,0,0,-3.213616371154785,0.0,6.737013101577759
1762512722.2243283,-33.0,16.0,-984.0,0,0,0,-3.213616371154785,0.0,6.737013101577759
1762512722.3246639,-35.0,23.0,-1024.0,0,0,0,-3.213616371154785,0.0,6.737013101577759
1762512722.4253366,-10.0,29.0,-1049.0,0,0,0,-3.213616371154785,0.0,6.737013101577759
1762512722.525702,-21.0,5.0,-1002.0,0,0,0,-3.213616371154785,0.0,6.737013101577759
1762512722.6263516,-27.0,8.0,-975.0,0,0,0,-3.213616371154785,0.0,6.737013101577759
1762512722.7267094,-21.0,14.0,-991.0,0,0,0,-3.213616371154785,0.0,6.737013101577759
1762512722.8274155,-14.0,26.0,-986.0,0,0,0,-3.213616371154785,0.0,6.737013101577759
1762512722.9278755,-35.0,17.0,-983.0,0,0,0,-3.213616371154785,0.0,6.737013101577759
1762512723.0285795,-12.0,15.0,-988.0,0,0,0,-3.213616371154785,0.0,6.737013101577759
1762512723.129159,-18.0,32.0,-967.0,0,0,0,-3.213616371154785,0.0,6.737013101577759
1762512723.2296205,-17.0,17.0,-995.0,0,0,0,-3.213616371154785,0.0,6.737013101577759
1762512723.3299057,-13.0,8.0,-1004.0,0,0,0,-3.213616371154785,0.0,6.737013101577759
1762512723.4304507,-6.0,13.0,-1008.0,0,0,0,-3.213616371154785,0.0,6.737013101577759
1762512723.5309172,-25.0,6.0,-1024.0,0,0,0,-3.213616371154785,0.0,6.737013101577759
1762512723.631419,2.0,28.0,-997.0,0,0,0,-3.213616371154785,0.0,6.737013101577759
1762512723.732373,-18.0,4.0,-1009.0,0,0,0,-3.213616371154785,0.0,6.737013101577759
1762512723.8328712,-25.0,12.0,-984.0,0,0,0,-3.213616371154785,0.0,6.737013101577759
1762512723.9339075,-34.0,14.0,-979.0,0,0,0,-3.213616371154785,0.0,6.737013101577759
1762512724.0345469,-13.0,24.0,-984.0,0,0,0,-3.213616371154785,0.0,6.737013101577759
1762512724.1353557,-28.0,24.0,-996.0,0,0,0,-3.213616371154785,0.0,6.737013101577759
1762512724.2360094,-30.0,0.0,-974.0,0,0,0,-3.213616371154785,0.0,6.737013101577759
1762512724.336527,-29.0,25.0,-960.0,0,0,0,-3.213616371154785,0.0,6.737013101577759
1762512724.436989,-32.0,4.0,-970.0,0,0,0,-3.213616371154785,0.0,6.737013101577759
1762512724.537846,-12.0,22.0,-1021.0,0,0,0,-3.213616371154785,0.0,6.737013101577759
1762512724.638169,-10.0,27.0,-1013.0,0,0,0,-3.213616371154785,0.0,6.737013101577759
1762512724.7385705,-34.0,24.0,-999.0,0,0,0,-3.213616371154785,0.0,6.737013101577759
1762512724.8390326,-33.0,4.0,-1009.0,0,0,0,-3.213616371154785,0.0,6.737013101577759
1762512724.9398968,-43.0,-11.0,-994.0,0,0,0,-3.213616371154785,0.0,6.737013101577759
1762512725.0404572,-23.0,4.0,-1048.0,0,0,0,-3.213616371154785,0.0,6.737013101577759
1762512725.14089,-48.0,2.0,-1007.0,0,0,0,-3.213616371154785,0.0,6.737013101577759
1762512725.2412808,-20.0,31.0,-993.0,0,0,0,-3.213616371154785,0.0,6.737013101577759
1762512725.3421245,2.0,17.0,-989.0,0,0,0,-3.213616371154785,0.0,6.737013101577759
1762512725.442964,-1.0,32.0,-1007.0,0,0,0,-3.213616371154785,0.0,6.737013101577759
1762512725.5431905,-33.0,11.0,-969.0,0,0,0,-3.213616371154785,0.0,6.737013101577759
1762512725.644003,-24.0,13.0,-1021.0,0,0,0,-3.213616371154785,0.0,6.737013101577759
1762512725.7448115,-47.0,14.0,-991.0,0,0,0,-3.213616371154785,0.0,6.737013101577759
1762512725.8456855,-30.0,-7.0,-997.0,0,0,0,-3.213616371154785,0.0,6.737013101577759
1762512725.9459646,-51.0,0.0,-992.0,0,0,0,-3.213616371154785,0.0,6.737013101577759
1762512726.0467608,-36.0,3.0,-1013.0,0,0,0,-3.213616371154785,0.0,6.737013101577759
1762512726.1470442,-35.0,18.0,-1014.0,0,0,0,-3.213616371154785,0.0,6.737013101577759
1762512726.2474408,-33.0,3.0,-1009.0,0,0,0,-3.213616371154785,0.0,6.737013101577759
1762512726.3479402,2.0,15.0,-988.0,0,0,0,-3.213616371154785,0.0,6.737013101577759
1762512726.4483798,-19.0,12.0,-1018.0,0,0,0,-3.213616371154785,0.0,6.737013101577759
1762512726.5488317,-33.0,19.0,-987.0,0,0,0,-3.213616371154785,0.0,6.737013101577759
1762512726.6490126,-7.0,16.0,-1005.0,0,0,0,-3.213616371154785,0.0,6.737013101577759
1762512726.7495992,-29.0,6.0,-982.0,0,0,0,-3.213616371154785,0.0,6.737013101577759
1762512726.8503656,0.0,1.0,-1009.0,0,0,0,-3.213616371154785,0.0,6.737013101577759
1762512726.9507146,-12.0,3.0,-1019.0,0,0,0,-3.213616371154785,0.0,6.737013101577759
1762512727.0513387,-29.0,1.0,-1002.0,0,0,0,-3.213616371154785,0.0,6.737013101577759
1762512727.1521652,-32.0,27.0,-999.0,0,0,0,-3.213616371154785,0.0,6.737013101577759
1762512727.252758,-3.0,-18.0,-1019.0,0,0,0,-3.213616371154785,0.0,6.737013101577759
1762512727.3531842,-20.0,8.0,-1016.0,0,0,0,-3.213616371154785,0.0,6.737013101577759
1762512727.4539135,-21.0,34.0,-1033.0,0,1,0,-3.213616371154785,0.10072922706604004,6.737013101577759
1762512727.554451,-6.0,30.0,-976.0,0,1,0,-3.213616371154785,0.20126676559448242,6.737013101577759
1762512727.6550348,-30.0,10.0,-1001.0,0,1,0,-3.213616371154785,0.3018505573272705,6.737013101577759
1762512727.7555656,-40.0,17.0,-1010.0,0,2,0,-3.213616371154785,0.5029122829437256,6.737013101577759
1762512727.8559208,-20.0,14.0,-1001.0,0,2,0,-3.213616371154785,0.703622579574585,6.737013101577759
1762512727.9563587,-32.0,12.0,-986.0,0,2,0,-3.213616371154785,0.9044983386993408,6.737013101577759
1762512728.0566583,-20.0,15.0,-978.0,0,2,0,-3.213616371154785,1.1050975322723389,6.737013101577759
1762512728.157115,-29.0,21.0,-1012.0,0,2,0,-3.213616371154785,1.3060109615325928,6.737013101577759
1762512728.2579336,-42.0,12.0,-1022.0,0,2,0,-3.213616371154785,1.507648229598999,6.737013101577759
1762512728.358587,-49.0,16.0,-1031.0,0,2,0,-3.213616371154785,1.7089550495147705,6.737013101577759
1762512728.4591627,-25.0,27.0,-1017.0,0,2,0,-3.213616371154785,1.9101064205169678,6.737013101577759
1762512728.5601425,-9.0,27.0,-999.0,0,2,0,-3.213616371154785,2.1120660305023193,6.737013101577759
1762512728.6607797,-29.0,26.0,-1008.0,0,2,0,-3.213616371154785,2.313340425491333,6.737013101577759
1762512728.7613492,-6.0,33.0,-994.0,0,2,0,-3.213616371154785,2.514479398727417,6.737013101577759
1762512728.862214,-7.0,42.0,-1000.0,0,2,0,-3.213616371154785,2.7162091732025146,6.737013101577759
1762512728.9626844,-25.0,23.0,-1015.0,0,2,0,-3.213616371154785,2.917149782180786,6.737013101577759
1762512729.0632005,-26.0,38.0,-996.0,0,2,0,-3.213616371154785,3.1181819438934326,6.737013101577759
1762512729.163673,-9.0,16.0,-985.0,0,2,0,-3.213616371154785,3.319126844406128,6.737013101577759
1762512729.264457,2.0,50.0,-935.0,0,2,0,-3.213616371154785,3.5206949710845947,6.737013101577759
1762512729.3649273,-14.0,7.0,-1012.0,0,0,0,-3.213616371154785,3.5206949710845947,6.737013101577759
1762512729.4653723,-13.0,-9.0,-1001.0,0,0,0,-3.213616371154785,3.5206949710845947,6.737013101577759
1762512729.5657864,-15.0,0.0,-1003.0,0,0,0,-3.213616371154785,3.5206949710845947,6.737013101577759
1762512729.6663675,-16.0,8.0,-1034.0,0,0,0,-3.213616371154785,3.5206949710845947,6.737013101577759
1762512729.7671137,-20.0,-14.0,-979.0,0,0,0,-3.213616371154785,3.5206949710845947,6.737013101577759
1762512729.8677433,-8.0,-4.0,-1025.0,0,0,0,-3.213616371154785,3.5206949710845947,6.737013101577759
1762512729.9685035,-18.0,14.0,-1013.0,0,0,0,-3.213616371154785,3.5206949710845947,6.737013101577759
1762512730.0689082,-20.0,9.0,-1013.0,0,0,0,-3.213616371154785,3.5206949710845947,6.737013101577759
1762512730.1691802,-25.0,-13.0,-1016.0,0,0,0,-3.213616371154785,3.5206949710845947,6.737013101577759
1762512730.2698035,-14.0,7.0,-1005.0,0,0,0,-3.213616371154785,3.5206949710845947,6.737013101577759
1762512730.3706026,-4.0,7.0,-1009.0,0,0,0,-3.213616371154785,3.5206949710845947,6.737013101577759
1762512730.47097,-21.0,-12.0,-999.0,0,0,0,-3.213616371154785,3.5206949710845947,6.737013101577759
1762512730.5712721,14.0,3.0,-998.0,0,0,0,-3.213616371154785,3.5206949710845947,6.737013101577759
1762512730.6715572,-29.0,-5.0,-992.0,0,0,0,-3.213616371154785,3.5206949710845947,6.737013101577759
1762512730.7720754,1.0,1.0,-1006.0,0,0,0,-3.213616371154785,3.5206949710845947,6.737013101577759
1762512730.873302,-10.0,2.0,-987.0,0,0,0,-3.213616371154785,3.5206949710845947,6.737013101577759
1762512730.9742181,-7.0,-16.0,-1002.0,0,0,0,-3.213616371154785,3.5206949710845947,6.737013101577759
1762512731.0749967,-27.0,-7.0,-973.0,0,0,0,-3.213616371154785,3.5206949710845947,6.737013101577759
1762512731.1759589,-5.0,1.0,-1001.0,0,0,0,-3.213616371154785,3.5206949710845947,6.737013101577759
1762512731.277074,-1.0,5.0,-1014.0,0,0,0,-3.213616371154785,3.5206949710845947,6.737013101577759
1762512731.378064,-6.0,-11.0,-990.0,0,0,0,-3.213616371154785,3.5206949710845947,6.737013101577759
1762512731.4786508,-13.0,-7.0,-989.0,0,0,0,-3.213616371154785,3.5206949710845947,6.737013101577759
1762512731.5798533,-3.0,0.0,-1003.0,0,0,0,-3.213616371154785,3.5206949710845947,6.737013101577759
1762512731.680398,5.0,-5.0,-987.0,0,0,0,-3.213616371154785,3.5206949710845947,6.737013101577759
1762512731.7810369,0.0,0.0,-997.0,0,0,0,-3.213616371154785,3.5206949710845947,6.737013101577759
1762512731.8818533,-3.0,4.0,-1010.0,0,0,0,-3.213616371154785,3.5206949710845947,6.737013101577759
1762512731.9825296,5.0,-1.0,-1036.0,0,0,0,-3.213616371154785,3.5206949710845947,6.737013101577759
1762512732.0831256,-27.0,-8.0,-998.0,0,0,0,-3.213616371154785,3.5206949710845947,6.737013101577759
1762512732.1836917,-22.0,-8.0,-999.0,0,0,0,-3.213616371154785,3.5206949710845947,6.737013101577759
1762512732.2844844,-17.0,-8.0,-1001.0,0,0,0,-3.213616371154785,3.5206949710845947,6.737013101577759
1762512732.3850439,-3.0,1.0,-999.0,0,0,0,-3.213616371154785,3.5206949710845947,6.737013101577759
1762512732.4858391,-11.0,-6.0,-1007.0,0,0,0,-3.213616371154785,3.5206949710845947,6.737013101577759
1762512732.5866024,6.0,-9.0,-999.0,0,0,0,-3.213616371154785,3.5206949710845947,6.737013101577759
1762512732.6869955,-35.0,-6.0,-998.0,0,0,0,-3.213616371154785,3.5206949710845947,6.737013101577759
1762512732.7873476,4.0,-5.0,-1022.0,0,0,0,-3.213616371154785,3.5206949710845947,6.737013101577759
1762512732.8878765,-8.0,-7.0,-995.0,0,0,0,-3.213616371154785,3.5206949710845947,6.737013101577759
1762512732.9881294,-24.0,-9.0,-998.0,0,0,0,-3.213616371154785,3.5206949710845947,6.737013101577759
1762512733.088445,-7.0,0.0,-1002.0,0,0,0,-3.213616371154785,3.5206949710845947,6.737013101577759
1762512733.1887748,-14.0,-6.0,-1011.0,0,0,0,-3.213616371154785,3.5206949710845947,6.737013101577759
1762512733.2892127,10.0,-8.0,-1012.0,0,0,0,-3.213616371154785,3.5206949710845947,6.737013101577759
1762512733.389718,-5.0,-11.0,-1015.0,0,0,0,-3.213616371154785,3.5206949710845947,6.737013101577759
1762512733.4899433,-20.0,0.0,-1001.0,0,0,0,-3.213616371154785,3.5206949710845947,6.737013101577759
1762512733.5904963,-13.0,5.0,-1000.0,0,0,0,-3.213616371154785,3.5206949710845947,6.737013101577759
1762512733.6907003,-12.0,-16.0,-989.0,0,0,0,-3.213616371154785,3.5206949710845947,6.737013101577759
1762512733.7911422,8.0,-1.0,-1010.0,0,0,0,-3.213616371154785,3.5206949710845947,6.737013101577759
1762512733.8914392,-3.0,6.0,-977.0,0,0,0,-3.213616371154785,3.5206949710845947,6.737013101577759
1762512733.9918623,-18.0,-3.0,-996.0,0,0,0,-3.213616371154785,3.5206949710845947,6.737013101577759
1762512734.0922165,-2.0,9.0,-1005.0,0,0,0,-3.213616371154785,3.5206949710845947,6.737013101577759
1762512734.192705,-8.0,3.0,-986.0,0,0,0,-3.213616371154785,3.5206949710845947,6.737013101577759
1762512734.2933145,-9.0,0.0,-1018.0,0,0,0,-3.213616371154785,3.5206949710845947,6.737013101577759
1762512734.3938403,-2.0,11.0,-996.0,0,0,0,-3.213616371154785,3.5206949710845947,6.737013101577759
1762512734.4942255,-20.0,11.0,-988.0,0,0,0,-3.213616371154785,3.5206949710845947,6.737013101577759
1762512734.5946798,-10.0,5.0,-1000.0,0,0,0,-3.213616371154785,3.5206949710845947,6.737013101577759
1762512734.6950324,-10.0,0.0,-1009.0,0,0,0,-3.213616371154785,3.5206949710845947,6.737013101577759
1762512734.7953105,-28.0,10.0,-996.0,0,0,0,-3.213616371154785,3.5206949710845947,6.737013101577759
1762512734.8957493,-20.0,11.0,-998.0,0,0,0,-3.213616371154785,3.5206949710845947,6.737013101577759
1762512734.9963067,-20.0,16.0,-989.0,0,0,0,-3.213616371154785,3.5206949710845947,6.737013101577759
1762512735.096721,-12.0,-4.0,-983.0,0,0,0,-3.213616371154785,3.5206949710845947,6.737013101577759
1762512735.1968858,-35.0,10.0,-995.0,0,0,0,-3.213616371154785,3.5206949710845947,6.737013101577759
1762512735.2975647,-16.0,18.0,-1009.0,0,0,0,-3.213616371154785,3.5206949710845947,6.737013101577759
1762512735.3980453,-24.0,8.0,-1012.0,0,0,0,-3.213616371154785,3.5206949710845947,6.737013101577759
1762512735.499043,-5.0,13.0,-1007.0,0,0,0,-3.213616371154785,3.5206949710845947,6.737013101577759
1762512735.5995765,-24.0,3.0,-1020.0,0,0,0,-3.213616371154785,3.5206949710845947,6.737013101577759
1762512735.7003393,0.0,14.0,-1010.0,0,0,0,-3.213616371154785,3.5206949710845947,6.737013101577759
1762512735.8007524,-10.0,13.0,-1026.0,0,0,0,-3.213616371154785,3.5206949710845947,6.737013101577759
1762512735.9012153,-5.0,6.0,-1006.0,0,0,0,-3.213616371154785,3.5206949710845947,6.737013101577759
1762512736.0016522,-10.0,9.0,-994.0,0,0,0,-3.213616371154785,3.5206949710845947,6.737013101577759
1762512736.1022086,-12.0,14.0,-1020.0,0,0,0,-3.213616371154785,3.5206949710845947,6.737013101577759
1762512736.202596,-8.0,-5.0,-1000.0,0,0,0,-3.213616371154785,3.5206949710845947,6.737013101577759
1762512736.3030462,-33.0,6.0,-980.0,0,0,0,-3.213616371154785,3.5206949710845947,6.737013101577759
1762512736.4034224,-20.0,14.0,-1012.0,0,0,0,-3.213616371154785,3.5206949710845947,6.737013101577759
1762512736.503791,-27.0,0.0,-994.0,0,0,0,-3.213616371154785,3.5206949710845947,6.737013101577759
1762512736.6044247,-11.0,10.0,-1007.0,0,0,0,-3.213616371154785,3.5206949710845947,6.737013101577759
1762512736.7047355,-3.0,10.0,-1019.0,0,0,0,-3.213616371154785,3.5206949710845947,6.737013101577759
1762512736.8051887,-24.0,3.0,-1002.0,0,0,0,-3.213616371154785,3.5206949710845947,6.737013101577759
1762512736.9056773,-24.0,8.0,-1012.0,0,0,0,-3.213616371154785,3.5206949710845947,6.737013101577759
1762512737.006119,-19.0,3.0,-997.0,0,0,0,-3.213616371154785,3.5206949710845947,6.737013101577759
1762512737.1067326,9.0,6.0,-1002.0,0,0,0,-3.213616371154785,3.5206949710845947,6.737013101577759
1762512737.207606,-29.0,15.0,-1011.0,0,0,0,-3.213616371154785,3.5206949710845947,6.737013101577759
1762512737.3082771,-16.0,6.0,-1000.0,0,0,0,-3.213616371154785,3.5206949710845947,6.737013101577759
1762512737.4087663,-15.0,4.0,-1007.0,0,0,0,-3.213616371154785,3.5206949710845947,6.737013101577759
1762512737.5091054,1.0,32.0,-996.0,0,0,0,-3.213616371154785,3.5206949710845947,6.737013101577759
1762512737.609569,-2.0,15.0,-1020.0,0,0,0,-3.213616371154785,3.5206949710845947,6.737013101577759
1762512737.7102373,3.0,20.0,-1017.0,0,0,0,-3.213616371154785,3.5206949710845947,6.737013101577759
1762512737.8111122,-28.0,15.0,-992.0,0,0,0,-3.213616371154785,3.5206949710845947,6.737013101577759
1762512737.912037,-14.0,19.0,-996.0,0,0,0,-3.213616371154785,3.5206949710845947,6.737013101577759
1762512738.0125196,-16.0,29.0,-971.0,0,0,0,-3.213616371154785,3.5206949710845947,6.737013101577759
1762512738.1131537,0.0,9.0,-966.0,0,0,0,-3.213616371154785,3.5206949710845947,6.737013101577759
1762512738.2139106,-26.0,-2.0,-984.0,0,0,0,-3.213616371154785,3.5206949710845947,6.737013101577759
1762512738.3142352,-1.0,16.0,-1024.0,0,0,0,-3.213616371154785,3.5206949710845947,6.737013101577759
1762512738.4146123,-3.0,-1.0,-995.0,0,0,0,-3.213616371154785,3.5206949710845947,6.737013101577759
1762512738.5154471,-20.0,15.0,-984.0,0,0,0,-3.213616371154785,3.5206949710845947,6.737013101577759
1762512738.6162312,-37.0,9.0,-985.0,0,0,0,-3.213616371154785,3.5206949710845947,6.737013101577759
1762512738.7169886,1.0,22.0,-1018.0,0,0,0,-3.213616371154785,3.5206949710845947,6.737013101577759
1762512738.817684,-15.0,11.0,-982.0,0,0,0,-3.213616371154785,3.5206949710845947,6.737013101577759
1762512738.9180315,2.0,13.0,-1001.0,0,0,0,-3.213616371154785,3.5206949710845947,6.737013101577759
1762512739.018555,-2.0,15.0,-998.0,0,0,0,-3.213616371154785,3.5206949710845947,6.737013101577759
1762512739.119247,-21.0,9.0,-1026.0,0,0,0,-3.213616371154785,3.5206949710845947,6.737013101577759
1762512739.2195847,-7.0,27.0,-992.0,0,0,0,-3.213616371154785,3.5206949710845947,6.737013101577759
1762512739.3201768,-8.0,14.0,-994.0,0,0,0,-3.213616371154785,3.5206949710845947,6.737013101577759
1762512739.420683,-34.0,15.0,-981.0,0,0,0,-3.213616371154785,3.5206949710845947,6.737013101577759
1762512739.5211031,-6.0,16.0,-1004.0,0,0,0,-3.213616371154785,3.5206949710845947,6.737013101577759
1762512739.6214244,-5.0,16.0,-984.0,0,0,0,-3.213616371154785,3.5206949710845947,6.737013101577759
1762512739.7219448,-6.0,15.0,-994.0,0,0,0,-3.213616371154785,3.5206949710845947,6.737013101577759
1762512739.8226116,-28.0,20.0,-1008.0,0,0,0,-3.213616371154785,3.5206949710845947,6.737013101577759
1762512739.9228907,-12.0,10.0,-973.0,1,0,0,-3.113337278366089,3.5206949710845947,6.737013101577759
1762512740.0231767,7.0,13.0,-1004.0,1,0,0,-3.0130512714385986,3.5206949710845947,6.737013101577759
1762512740.12336,0.0,12.0,-994.0,2,0,0,-2.8126847743988037,3.5206949710845947,6.737013101577759
1762512740.2239323,-4.0,6.0,-1010.0,2,0,0,-2.6115400791168213,3.5206949710845947,6.737013101577759
1762512740.324129,2.0,0.0,-999.0,2,0,0,-2.411146402359009,3.5206949710845947,6.737013101577759
1762512740.424779,5.0,16.0,-1010.0,2,0,0,-2.2098467350006104,3.5206949710845947,6.737013101577759
1762512740.5253634,7.0,12.0,-1008.0,2,0,0,-2.0086777210235596,3.5206949710845947,6.737013101577759
1762512740.625791,-7.0,-3.0,-986.0,2,0,0,-1.8078224658966064,3.5206949710845947,6.737013101577759
1762512740.7260923,-9.0,-3.0,-986.0,2,0,0,-1.607219934463501,3.5206949710845947,6.737013101577759
1762512740.8266397,3.0,5.0,-982.0,2,0,0,-1.4061253070831299,3.5206949710845947,6.737013101577759
1762512740.927305,5.0,10.0,-1023.0,2,0,0,-1.2047946453094482,3.5206949710845947,6.737013101577759
1762512741.0277088,-2.0,-1.0,-1012.0,2,0,0,-1.0039870738983154,3.5206949710845947,6.737013101577759
1762512741.1284378,18.0,9.0,-1001.0,2,0,0,-0.8025290966033936,3.5206949710845947,6.737013101577759
1762512741.229298,-6.0,2.0,-991.0,2,0,0,-0.6008083820343018,3.5206949710845947,6.737013101577759
1762512741.329753,-11.0,10.0,-1011.0,2,0,0,-0.3998987674713135,3.5206949710845947,6.737013101577759
1762512741.4302654,7.0,10.0,-1010.0,2,0,0,-0.19887375831604004,3.5206949710845947,6.737013101577759
1762512741.5304463,14.0,9.0,-1000.0,2,0,0,0.0014879703521728516,3.5206949710845947,6.737013101577759
1762512741.630844,-5.0,-2.0,-1009.0,2,0,0,0.20228362083435059,3.5206949710845947,6.737013101577759
1762512741.731235,-20.0,10.0,-1020.0,2,0,0,0.40306544303894043,3.5206949710845947,6.737013101577759
1762512741.8318973,3.0,-7.0,-993.0,2,0,0,0.6043899059295654,3.5206949710845947,6.737013101577759
1762512741.932768,19.0,-7.0,-980.0,1,0,0,0.7052607536315918,3.5206949710845947,6.737013101577759
1762512742.0335078,-36.0,-3.0,-1017.0,0,0,0,0.7052607536315918,3.5206949710845947,6.737013101577759
1762512742.133762,-11.0,5.0,-1010.0,0,0,0,0.7052607536315918,3.5206949710845947,6.737013101577759
1762512742.233925,-25.0,13.0,-991.0,0,0,0,0.7052607536315918,3.5206949710845947,6.737013101577759
1762512742.3346186,-13.0,10.0,-1012.0,0,0,0,0.7052607536315918,3.5206949710845947,6.737013101577759
1762512742.4350147,-37.0,2.0,-980.0,0,0,0,0.7052607536315918,3.5206949710845947,6.737013101577759
1762512742.535694,-30.0,23.0,-994.0,0,0,0,0.7052607536315918,3.5206949710845947,6.737013101577759
1762512742.6363242,-19.0,24.0,-1037.0,0,0,0,0.7052607536315918,3.5206949710845947,6.737013101577759
1762512742.7367005,-44.0,9.0,-990.0,0,0,0,0.7052607536315918,3.5206949710845947,6.737013101577759
1762512742.8371818,-22.0,10.0,-1002.0,0,0,0,0.7052607536315918,3.5206949710845947,6.737013101577759
1762512742.9378812,-18.0,13.0,-1006.0,0,0,0,0.7052607536315918,3.5206949710845947,6.737013101577759
1762512743.0384903,-17.0,9.0,-998.0,0,0,0,0.7052607536315918,3.5206949710845947,6.737013101577759
1762512743.1391351,-34.0,2.0,-1004.0,0,0,0,0.7052607536315918,3.5206949710845947,6.737013101577759
1762512743.2395518,-20.0,15.0,-1005.0,0,0,0,0.7052607536315918,3.5206949710845947,6.737013101577759
1762512743.3399029,-19.0,1.0,-986.0,0,0,0,0.7052607536315918,3.5206949710845947,6.737013101577759
1762512743.4402065,-17.0,-2.0,-1014.0,0,0,0,0.7052607536315918,3.5206949710845947,6.737013101577759
1762512743.5407906,-12.0,-1.0,-1000.0,0,0,0,0.7052607536315918,3.5206949710845947,6.737013101577759
1762512743.6412597,-4.0,33.0,-1002.0,0,0,0,0.7052607536315918,3.5206949710845947,6.737013101577759
1762512743.7418065,-33.0,0.0,-1000.0,0,0,0,0.7052607536315918,3.5206949710845947,6.737013101577759
1762512743.8422976,-20.0,7.0,-970.0,0,0,0,0.7052607536315918,3.5206949710845947,6.737013101577759
1762512743.9427545,-5.0,-2.0,-1013.0,0,0,0,0.7052607536315918,3.5206949710845947,6.737013101577759
1762512744.043429,12.0,-3.0,-1002.0,0,0,0,0.7052607536315918,3.5206949710845947,6.737013101577759
1762512744.1438801,-10.0,-5.0,-1029.0,0,0,0,0.7052607536315918,3.5206949710845947,6.737013101577759
1762512744.244591,-16.0,-14.0,-984.0,0,0,0,0.7052607536315918,3.5206949710845947,6.737013101577759
1762512744.3450994,6.0,-10.0,-1018.0,0,0,0,0.7052607536315918,3.5206949710845947,6.737013101577759
1762512744.4458692,2.0,-10.0,-975.0,0,0,0,0.7052607536315918,3.5206949710845947,6.737013101577759
1762512744.5466168,-17.0,-7.0,-978.0,0,0,0,0.7052607536315918,3.5206949710845947,6.737013101577759
1762512744.6471086,-15.0,16.0,-997.0,0,0,0,0.7052607536315918,3.5206949710845947,6.737013101577759
1762512744.747703,-14.0,8.0,-1007.0,0,0,0,0.7052607536315918,3.5206949710845947,6.737013101577759
1762512744.8480153,4.0,-6.0,-990.0,0,0,0,0.7052607536315918,3.5206949710845947,6.737013101577759
1762512744.9489417,-5.0,15.0,-1022.0,0,0,0,0.7052607536315918,3.5206949710845947,6.737013101577759
1762512745.0498714,-6.0,3.0,-998.0,0,0,0,0.7052607536315918,3.5206949710845947,6.737013101577759
1762512745.1502852,-16.0,-20.0,-979.0,0,0,0,0.7052607536315918,3.5206949710845947,6.737013101577759
1762512745.2513113,-10.0,5.0,-996.0,0,0,0,0.7052607536315918,3.5206949710845947,6.737013101577759
1762512745.3519907,1.0,-7.0,-988.0,0,0,0,0.7052607536315918,3.5206949710845947,6.737013101577759
1762512745.4528623,-18.0,-6.0,-1006.0,0,0,0,0.7052607536315918,3.5206949710845947,6.737013101577759
1762512745.5535634,-4.0,-12.0,-1019.0,0,0,0,0.7052607536315918,3.5206949710845947,6.737013101577759
1762512745.6542606,0.0,1.0,-1027.0,0,0,0,0.7052607536315918,3.5206949710845947,6.737013101577759
1762512745.7546608,-14.0,13.0,-1018.0,0,0,0,0.7052607536315918,3.5206949710845947,6.737013101577759
1762512745.8554988,-11.0,-16.0,-987.0,0,0,0,0.7052607536315918,3.5206949710845947,6.737013101577759
1762512745.955827,4.0,-3.0,-992.0,0,0,0,0.7052607536315918,3.5206949710845947,6.737013101577759
1762512746.0566478,-11.0,-9.0,-975.0,0,0,0,0.7052607536315918,3.5206949710845947,6.737013101577759
1762512746.1574633,1.0,14.0,-1023.0,0,0,0,0.7052607536315918,3.5206949710845947,6.737013101577759
1762512746.2581103,1.0,-17.0,-976.0,0,0,0,0.7052607536315918,3.5206949710845947,6.737013101577759
1762512746.3588276,-9.0,-15.0,-1015.0,0,0,0,0.7052607536315918,3.5206949710845947,6.737013101577759
1762512746.4597268,15.0,-7.0,-1013.0,0,0,0,0.7052607536315918,3.5206949710845947,6.737013101577759
1762512746.56008,0.0,20.0,-1006.0,0,0,0,0.7052607536315918,3.5206949710845947,6.737013101577759
1762512746.660633,-3.0,-4.0,-1023.0,0,0,0,0.7052607536315918,3.5206949710845947,6.737013101577759
1762512746.7613914,-4.0,-1.0,-998.0,0,0,0,0.7052607536315918,3.5206949710845947,6.737013101577759
1762512746.8621871,6.0,15.0,-1025.0,0,0,0,0.7052607536315918,3.5206949710845947,6.737013101577759
1762512746.962699,0.0,-21.0,-992.0,0,0,0,0.7052607536315918,3.5206949710845947,6.737013101577759
1762512747.0633543,-3.0,-16.0,-1015.0,0,0,0,0.7052607536315918,3.5206949710845947,6.737013101577759
1762512747.163994,0.0,-4.0,-1008.0,0,0,0,0.7052607536315918,3.5206949710845947,6.737013101577759
1762512747.2649257,-30.0,-5.0,-990.0,0,0,0,0.7052607536315918,3.5206949710845947,6.737013101577759
1762512747.365588,-24.0,8.0,-1001.0,0,0,0,0.7052607536315918,3.5206949710845947,6.737013101577759
1762512747.4660811,2.0,24.0,-1005.0,0,0,0,0.7052607536315918,3.5206949710845947,6.737013101577759
1762512747.566467,-13.0,6.0,-1008.0,0,0,0,0.7052607536315918,3.5206949710845947,6.737013101577759
1762512747.6672394,-13.0,-9.0,-996.0,0,0,0,0.7052607536315918,3.5206949710845947,6.737013101577759
1762512747.768011,-2.0,-8.0,-1002.0,0,0,0,0.7052607536315918,3.5206949710845947,6.737013101577759
1762512747.8683395,-16.0,8.0,-1001.0,0,0,0,0.7052607536315918,3.5206949710845947,6.737013101577759
1762512747.9690704,-6.0,-6.0,-1008.0,0,0,0,0.7052607536315918,3.5206949710845947,6.737013101577759
1762512748.0696561,-8.0,23.0,-1003.0,0,0,0,0.7052607536315918,3.5206949710845947,6.737013101577759
1762512748.170346,-29.0,23.0,-995.0,0,0,0,0.7052607536315918,3.5206949710845947,6.737013101577759
1762512748.271154,-9.0,-20.0,-1011.0,0,0,0,0.7052607536315918,3.5206949710845947,6.737013101577759
1762512748.3720272,-35.0,-6.0,-997.0,0,0,0,0.7052607536315918,3.5206949710845947,6.737013101577759
1762512748.472693,-21.0,-9.0,-1031.0,0,0,0,0.7052607536315918,3.5206949710845947,6.737013101577759
1762512748.573442,-42.0,5.0,-995.0,0,0,0,0.7052607536315918,3.5206949710845947,6.737013101577759
1762512748.6737378,-20.0,-3.0,-1023.0,0,0,0,0.7052607536315918,3.5206949710845947,6.737013101577759
1762512748.7743576,-17.0,22.0,-980.0,0,0,0,0.7052607536315918,3.5206949710845947,6.737013101577759
1762512748.874827,-11.0,-6.0,-1032.0,0,0,0,0.7052607536315918,3.5206949710845947,6.737013101577759
1762512748.9751925,-10.0,-7.0,-975.0,0,0,0,0.7052607536315918,3.5206949710845947,6.737013101577759
1762512749.075504,-13.0,-7.0,-1021.0,0,0,0,0.7052607536315918,3.5206949710845947,6.737013101577759
1762512749.1756678,-22.0,18.0,-998.0,0,0,0,0.7052607536315918,3.5206949710845947,6.737013101577759
1762512749.2758372,-2.0,-17.0,-972.0,0,0,0,0.7052607536315918,3.5206949710845947,6.737013101577759
1762512749.3762567,-19.0,1.0,-996.0,0,0,0,0.7052607536315918,3.5206949710845947,6.737013101577759
1762512749.4770808,-20.0,-15.0,-977.0,0,0,0,0.7052607536315918,3.5206949710845947,6.737013101577759
1762512749.577564,-24.0,6.0,-1006.0,0,0,0,0.7052607536315918,3.5206949710845947,6.737013101577759
1762512749.6781576,-33.0,0.0,-1006.0,0,0,0,0.7052607536315918,3.5206949710845947,6.737013101577759
1762512749.7789214,-23.0,24.0,-991.0,0,0,0,0.7052607536315918,3.5206949710845947,6.737013101577759
1762512749.8792186,-17.0,6.0,-1005.0,0,0,0,0.7052607536315918,3.5206949710845947,6.737013101577759
1762512749.9797974,-20.0,5.0,-996.0,0,0,0,0.7052607536315918,3.5206949710845947,6.737013101577759
1762512750.0803816,-14.0,2.0,-1014.0,0,0,0,0.7052607536315918,3.5206949710845947,6.737013101577759
1762512750.1811764,-14.0,0.0,-1020.0,0,0,0,0.7052607536315918,3.5206949710845947,6.737013101577759
1762512750.2819932,-21.0,12.0,-1023.0,0,0,0,0.7052607536315918,3.5206949710845947,6.737013101577759
1762512750.3826926,-6.0,-16.0,-995.0,0,0,0,0.7052607536315918,3.5206949710845947,6.737013101577759
1762512750.483243,-10.0,-11.0,-1021.0,0,0,0,0.7052607536315918,3.5206949710845947,6.737013101577759
1762512750.5839033,-16.0,0.0,-1024.0,0,0,0,0.7052607536315918,3.5206949710845947,6.737013101577759
1762512750.6846411,-10.0,-16.0,-1012.0,0,0,0,0.7052607536315918,3.5206949710845947,6.737013101577759
1762512750.7853196,-9.0,-3.0,-1000.0,0,0,0,0.7052607536315918,3.5206949710845947,6.737013101577759
1762512750.885968,-12.0,-18.0,-1005.0,0,0,0,0.7052607536315918,3.5206949710845947,6.737013101577759
1762512750.9868324,-17.0,-7.0,-990.0,0,0,0,0.7052607536315918,3.5206949710845947,6.737013101577759
1762512751.0872989,-13.0,-14.0,-1012.0,0,0,0,0.7052607536315918,3.5206949710845947,6.737013101577759
1762512751.1878753,-5.0,7.0,-1002.0,0,0,0,0.7052607536315918,3.5206949710845947,6.737013101577759
1762512751.288174,-9.0,-6.0,-997.0,0,0,0,0.7052607536315918,3.5206949710845947,6.737013101577759
1762512751.3885348,-6.0,-9.0,-992.0,0,0,0,0.7052607536315918,3.5206949710845947,6.737013101577759
1762512751.4886947,-6.0,0.0,-1017.0,0,0,0,0.7052607536315918,3.5206949710845947,6.737013101577759
1762512751.5890973,-12.0,3.0,-1009.0,0,0,0,0.7052607536315918,3.5206949710845947,6.737013101577759
1762512751.6897397,-20.0,2.0,-988.0,0,0,0,0.7052607536315918,3.5206949710845947,6.737013101577759
1762512751.7901688,-1.0,-7.0,-1016.0,0,0,0,0.7052607536315918,3.5206949710845947,6.737013101577759
1762512751.8907685,4.0,10.0,-984.0,0,0,0,0.7052607536315918,3.5206949710845947,6.737013101577759
1762512751.9913597,-21.0,8.0,-1028.0,0,0,0,0.7052607536315918,3.5206949710845947,6.737013101577759
1762512752.0918715,-14.0,7.0,-994.0,0,0,0,0.7052607536315918,3.5206949710845947,6.737013101577759
1762512752.192323,5.0,-15.0,-1020.0,0,0,0,0.7052607536315918,3.5206949710845947,6.737013101577759
1762512752.2928069,-11.0,-13.0,-981.0,0,0,0,0.7052607536315918,3.5206949710845947,6.737013101577759
1762512752.393332,-31.0,-3.0,-969.0,0,0,0,0.7052607536315918,3.5206949710845947,6.737013101577759
1762512752.4936829,-7.0,-9.0,-993.0,0,-1,0,0.7052607536315918,3.420344114303589,6.737013101577759
1762512752.5944602,-5.0,4.0,-1009.0,0,-1,0,0.7052607536315918,3.3195667266845703,6.737013101577759
1762512752.694962,-19.0,-10.0,-981.0,0,-2,0,0.7052607536315918,3.118563175201416,6.737013101577759
1762512752.795313,0.0,-15.0,-1014.0,0,-2,0,0.7052607536315918,2.9178614616394043,6.737013101577759
1762512752.895656,-12.0,-17.0,-989.0,0,-2,0,0.7052607536315918,2.717175006866455,6.737013101577759
1762512752.996291,-16.0,-23.0,-1019.0,0,-2,0,0.7052607536315918,2.5159053802490234,6.737013101577759
1762512753.0966523,-15.0,0.0,-1024.0,0,-2,0,0.7052607536315918,2.315182685852051,6.737013101577759
1762512753.1969745,-13.0,-7.0,-1015.0,0,-2,0,0.7052607536315918,2.1145381927490234,6.737013101577759
1762512753.2976632,-21.0,4.0,-982.0,0,-2,0,0.7052607536315918,1.913160800933838,6.737013101577759
1762512753.3981543,-12.0,5.0,-990.0,0,-2,0,0.7052607536315918,1.7121787071228027,6.737013101577759
1762512753.4987907,-16.0,-1.0,-1000.0,0,-2,0,0.7052607536315918,1.5109057426452637,6.737013101577759
1762512753.599429,-1.0,-8.0,-1003.0,0,-2,0,0.7052607536315918,1.3096294403076172,6.737013101577759
1762512753.7002678,-11.0,-10.0,-1004.0,0,-2,0,0.7052607536315918,1.1079516410827637,6.737013101577759
1762512753.8009074,-12.0,14.0,-1002.0,0,-2,0,0.7052607536315918,0.906672477722168,6.737013101577759
1762512753.9012744,-5.0,-16.0,-1006.0,0,-2,0,0.7052607536315918,0.7059383392333984,6.737013101577759
1762512754.0022104,-10.0,-11.0,-1041.0,0,-2,0,0.7052607536315918,0.5040664672851562,6.737013101577759
1762512754.1025512,-19.0,1.0,-993.0,0,-2,0,0.7052607536315918,0.30338478088378906,6.737013101577759
1762512754.2034726,-5.0,7.0,-1011.0,0,-2,0,0.7052607536315918,0.10154199600219727,6.737013101577759
1762512754.3041873,-8.0,-23.0,-970.0,-1,-2,0,0.604546070098877,-0.09988737106323242,6.737013101577759
1762512754.4047568,-25.0,6.0,-1016.0,0,-2,0,0.604546070098877,-0.3010263442993164,6.737013101577759
1762512754.5055988,-27.0,-8.0,-992.0,0,-2,0,0.604546070098877,-0.5027103424072266,6.737013101577759
1762512754.6064003,-5.0,-33.0,-1009.0,0,-1,0,0.604546070098877,-0.6035118103027344,6.737013101577759
1762512754.706866,-27.0,13.0,-1006.0,0,0,0,0.604546070098877,-0.6035118103027344,6.737013101577759
1762512754.807194,-27.0,29.0,-1002.0,0,0,0,0.604546070098877,-0.6035118103027344,6.737013101577759
1762512754.9079473,-26.0,2.0,-1022.0,0,0,0,0.604546070098877,-0.6035118103027344,6.737013101577759
1762512755.008648,-10.0,5.0,-1011.0,0,0,0,0.604546070098877,-0.6035118103027344,6.737013101577759
1762512755.1090288,-28.0,6.0,-988.0,0,0,0,0.604546070098877,-0.6035118103027344,6.737013101577759
1762512755.2099352,-25.0,6.0,-1022.0,0,0,0,0.604546070098877,-0.6035118103027344,6.737013101577759
1762512755.3106227,-12.0,0.0,-992.0,0,0,0,0.604546070098877,-0.6035118103027344,6.737013101577759
1762512755.4110215,-10.0,-10.0,-976.0,0,0,0,0.604546070098877,-0.6035118103027344,6.737013101577759
1762512755.511386,-19.0,3.0,-1017.0,0,0,0,0.604546070098877,-0.6035118103027344,6.737013101577759
1762512755.6120834,-9.0,-7.0,-982.0,0,0,0,0.604546070098877,-0.6035118103027344,6.737013101577759
1762512755.7124588,-7.0,7.0,-1013.0,0,0,0,0.604546070098877,-0.6035118103027344,6.737013101577759
1762512755.8129518,-18.0,4.0,-1011.0,0,0,0,0.604546070098877,-0.6035118103027344,6.737013101577759
1762512755.9134598,-22.0,0.0,-993.0,0,0,0,0.604546070098877,-0.6035118103027344,6.737013101577759
1762512756.0138826,-16.0,15.0,-994.0,0,0,0,0.604546070098877,-0.6035118103027344,6.737013101577759
1762512756.114308,-17.0,4.0,-982.0,0,0,0,0.604546070098877,-0.6035118103027344,6.737013101577759
1762512756.2147818,-20.0,-4.0,-1023.0,0,0,0,0.604546070098877,-0.6035118103027344,6.737013101577759
1762512756.3155408,-33.0,10.0,-988.0,0,0,0,0.604546070098877,-0.6035118103027344,6.737013101577759
1762512756.4159691,-34.0,0.0,-1001.0,0,0,0,0.604546070098877,-0.6035118103027344,6.737013101577759
1762512756.516185,-9.0,15.0,-995.0,0,0,0,0.604546070098877,-0.6035118103027344,6.737013101577759
1762512756.6169496,-6.0,18.0,-980.0,0,0,0,0.604546070098877,-0.6035118103027344,6.737013101577759
1762512756.7178347,-4.0,4.0,-977.0,0,0,0,0.604546070098877,-0.6035118103027344,6.737013101577759
1762512756.818689,-11.0,-2.0,-1014.0,0,0,0,0.604546070098877,-0.6035118103027344,6.737013101577759
1762512756.919296,-17.0,6.0,-1007.0,0,0,0,0.604546070098877,-0.6035118103027344,6.737013101577759
1762512757.0198114,-21.0,4.0,-998.0,0,0,0,0.604546070098877,-0.6035118103027344,6.737013101577759
1762512757.1205554,2.0,-2.0,-995.0,0,0,0,0.604546070098877,-0.6035118103027344,6.737013101577759
1762512757.221072,-22.0,-2.0,-1010.0,0,0,0,0.604546070098877,-0.6035118103027344,6.737013101577759
1762512757.3219502,-26.0,3.0,-1000.0,0,0,0,0.604546070098877,-0.6035118103027344,6.737013101577759
1762512757.4223208,-33.0,-4.0,-973.0,0,0,0,0.604546070098877,-0.6035118103027344,6.737013101577759
1762512757.5230083,-20.0,5.0,-982.0,0,0,0,0.604546070098877,-0.6035118103027344,6.737013101577759
1762512757.6234362,-9.0,-9.0,-1008.0,0,0,0,0.604546070098877,-0.6035118103027344,6.737013101577759
1762512757.7239623,-12.0,4.0,-1012.0,0,0,0,0.604546070098877,-0.6035118103027344,6.737013101577759
1762512757.8244927,-18.0,-10.0,-1012.0,0,0,0,0.604546070098877,-0.6035118103027344,6.737013101577759
1762512757.9251142,-32.0,-16.0,-996.0,0,0,0,0.604546070098877,-0.6035118103027344,6.737013101577759
1762512758.0255668,-19.0,10.0,-976.0,0,0,0,0.604546070098877,-0.6035118103027344,6.737013101577759
1762512758.1263294,-17.0,-2.0,-987.0,0,0,0,0.604546070098877,-0.6035118103027344,6.737013101577759
1762512758.2270055,-10.0,-19.0,-981.0,0,0,0,0.604546070098877,-0.6035118103027344,6.737013101577759
1762512758.327563,-38.0,9.0,-1004.0,0,0,0,0.604546070098877,-0.6035118103027344,6.737013101577759
1762512758.4277284,-22.0,3.0,-985.0,0,0,0,0.604546070098877,-0.6035118103027344,6.737013101577759
1762512758.528443,-7.0,19.0,-1005.0,0,0,0,0.604546070098877,-0.6035118103027344,6.737013101577759
1762512758.6288815,-38.0,3.0,-980.0,0,0,0,0.604546070098877,-0.6035118103027344,6.737013101577759
1762512758.7292404,-13.0,6.0,-991.0,0,0,0,0.604546070098877,-0.6035118103027344,6.737013101577759
1762512758.8298347,-13.0,1.0,-992.0,0,0,0,0.604546070098877,-0.6035118103027344,6.737013101577759
1762512758.9306142,-30.0,8.0,-999.0,0,0,0,0.604546070098877,-0.6035118103027344,6.737013101577759
1762512759.0309596,-8.0,-4.0,-1006.0,0,0,0,0.604546070098877,-0.6035118103027344,6.737013101577759
1762512759.1314902,-39.0,6.0,-996.0,0,0,0,0.604546070098877,-0.6035118103027344,6.737013101577759
1762512759.231772,-16.0,-6.0,-989.0,0,0,0,0.604546070098877,-0.6035118103027344,6.737013101577759
1762512759.3324952,-5.0,-9.0,-1001.0,0,0,0,0.604546070098877,-0.6035118103027344,6.737013101577759
1762512759.432935,-12.0,8.0,-995.0,0,0,0,0.604546070098877,-0.6035118103027344,6.737013101577759
1762512759.5332956,-8.0,0.0,-1019.0,0,0,0,0.604546070098877,-0.6035118103027344,6.737013101577759
1762512759.6337173,-15.0,-9.0,-1009.0,0,0,0,0.604546070098877,-0.6035118103027344,6.737013101577759
1762512759.7342436,-16.0,0.0,-985.0,0,0,0,0.604546070098877,-0.6035118103027344,6.737013101577759
1762512759.8348927,-29.0,0.0,-1007.0,0,0,0,0.604546070098877,-0.6035118103027344,6.737013101577759
1762512759.9354954,-13.0,3.0,-1047.0,0,0,0,0.604546070098877,-0.6035118103027344,6.737013101577759
1762512760.0362947,-1.0,7.0,-1004.0,0,0,0,0.604546070098877,-0.6035118103027344,6.737013101577759
1762512760.136837,-39.0,8.0,-994.0,0,0,0,0.604546070098877,-0.6035118103027344,6.737013101577759
1762512760.237493,-25.0,5.0,-1004.0,0,0,0,0.604546070098877,-0.6035118103027344,6.737013101577759
1762512760.3382587,-29.0,5.0,-1004.0,0,0,0,0.604546070098877,-0.6035118103027344,6.737013101577759
1762512760.438902,-9.0,9.0,-992.0,0,0,0,0.604546070098877,-0.6035118103027344,6.737013101577759
1762512760.5395088,-8.0,16.0,-990.0,0,0,0,0.604546070098877,-0.6035118103027344,6.737013101577759
1762512760.6404727,-12.0,4.0,-980.0,0,0,0,0.604546070098877,-0.6035118103027344,6.737013101577759
1762512760.7410293,0.0,0.0,-1005.0,0,0,0,0.604546070098877,-0.6035118103027344,6.737013101577759
1762512760.841913,-10.0,-13.0,-1006.0,0,0,0,0.604546070098877,-0.6035118103027344,6.737013101577759
1762512760.9426067,-14.0,-2.0,-1008.0,0,0,0,0.604546070098877,-0.6035118103027344,6.737013101577759
1762512761.0434828,19.0,-10.0,-1018.0,0,0,0,0.604546070098877,-0.6035118103027344,6.737013101577759
1762512761.1440942,-23.0,-1.0,-988.0,0,0,0,0.604546070098877,-0.6035118103027344,6.737013101577759
1762512761.2445095,-14.0,4.0,-981.0,0,0,0,0.604546070098877,-0.6035118103027344,6.737013101577759
1762512761.345308,9.0,14.0,-1006.0,0,0,0,0.604546070098877,-0.6035118103027344,6.737013101577759
1762512761.446074,1.0,-4.0,-989.0,0,0,0,0.604546070098877,-0.6035118103027344,6.737013101577759
1762512761.546526,22.0,-7.0,-1002.0,0,0,0,0.604546070098877,-0.6035118103027344,6.737013101577759
1762512761.647316,9.0,12.0,-1018.0,0,0,0,0.604546070098877,-0.6035118103027344,6.737013101577759
1762512761.7479117,-16.0,-1.0,-988.0,0,0,0,0.604546070098877,-0.6035118103027344,6.737013101577759
1762512761.8484964,-22.0,2.0,-1000.0,0,0,0,0.604546070098877,-0.6035118103027344,6.737013101577759
1762512761.9487789,-11.0,-8.0,-998.0,0,0,0,0.604546070098877,-0.6035118103027344,6.737013101577759
1762512762.0496,-20.0,11.0,-1008.0,0,0,0,0.604546070098877,-0.6035118103027344,6.737013101577759
1762512762.149892,-15.0,-5.0,-1011.0,0,0,0,0.604546070098877,-0.6035118103027344,6.737013101577759
1762512762.250623,-34.0,-1.0,-992.0,0,0,0,0.604546070098877,-0.6035118103027344,6.737013101577759
1762512762.3508964,-4.0,-11.0,-986.0,0,0,0,0.604546070098877,-0.6035118103027344,6.737013101577759
1762512762.4512181,2.0,-1.0,-1008.0,0,0,0,0.604546070098877,-0.6035118103027344,6.737013101577759
1762512762.5518353,-9.0,-6.0,-1010.0,0,0,0,0.604546070098877,-0.6035118103027344,6.737013101577759
1762512762.652454,-17.0,6.0,-1017.0,0,0,0,0.604546070098877,-0.6035118103027344,6.737013101577759
1762512762.7528713,-20.0,-12.0,-979.0,0,0,0,0.604546070098877,-0.6035118103027344,6.737013101577759
1762512762.853415,-28.0,8.0,-971.0,0,0,0,0.604546070098877,-0.6035118103027344,6.737013101577759
1762512762.9540303,-21.0,24.0,-982.0,0,0,0,0.604546070098877,-0.6035118103027344,6.737013101577759
1762512763.0548153,-26.0,-6.0,-992.0,0,0,0,0.604546070098877,-0.6035118103027344,6.737013101577759
1762512763.1552846,-20.0,-11.0,-982.0,0,0,0,0.604546070098877,-0.6035118103027344,6.737013101577759
1762512763.255983,-16.0,-8.0,-1012.0,0,0,0,0.604546070098877,-0.6035118103027344,6.737013101577759
1762512763.3568187,-14.0,-4.0,-996.0,0,0,0,0.604546070098877,-0.6035118103027344,6.737013101577759
1762512763.4573166,-11.0,-5.0,-998.0,0,0,0,0.604546070098877,-0.6035118103027344,6.737013101577759
1762512763.5579414,-15.0,8.0,-993.0,0,0,0,0.604546070098877,-0.6035118103027344,6.737013101577759
1762512763.6587884,-22.0,-11.0,-998.0,0,0,0,0.604546070098877,-0.6035118103027344,6.737013101577759
1762512763.759544,-22.0,-14.0,-1003.0,0,0,0,0.604546070098877,-0.6035118103027344,6.737013101577759
1762512763.860102,-8.0,8.0,-1009.0,0,0,0,0.604546070098877,-0.6035118103027344,6.737013101577759
1762512763.9603488,-1.0,-6.0,-1010.0,0,0,0,0.604546070098877,-0.6035118103027344,6.737013101577759
1762512764.0610642,-17.0,-2.0,-1001.0,0,0,0,0.604546070098877,-0.6035118103027344,6.737013101577759
1762512764.1618788,-17.0,14.0,-983.0,0,0,0,0.604546070098877,-0.6035118103027344,6.737013101577759
1762512764.2624187,-10.0,10.0,-985.0,0,0,0,0.604546070098877,-0.6035118103027344,6.737013101577759
1762512764.362852,-34.0,5.0,-1019.0,0,0,0,0.604546070098877,-0.6035118103027344,6.737013101577759
1762512764.4635496,-31.0,1.0,-991.0,0,0,0,0.604546070098877,-0.6035118103027344,6.737013101577759
1762512764.5641022,-17.0,5.0,-1017.0,0,0,0,0.604546070098877,-0.6035118103027344,6.737013101577759
1762512764.6650314,-28.0,18.0,-986.0,0,0,0,0.604546070098877,-0.6035118103027344,6.737013101577759
1762512764.7657025,-14.0,-2.0,-998.0,0,0,0,0.604546070098877,-0.6035118103027344,6.737013101577759
1762512764.8659403,-1.0,-4.0,-1025.0,0,0,0,0.604546070098877,-0.6035118103027344,6.737013101577759
1762512764.9664423,-30.0,3.0,-991.0,0,0,0,0.604546070098877,-0.6035118103027344,6.737013101577759
1762512765.0671256,1.0,-5.0,-1010.0,0,0,0,0.604546070098877,-0.6035118103027344,6.737013101577759
1762512765.1681828,-10.0,3.0,-983.0,0,0,0,0.604546070098877,-0.6035118103027344,6.737013101577759
1762512765.2688951,-7.0,3.0,-956.0,0,0,0,0.604546070098877,-0.6035118103027344,6.737013101577759
1762512765.3694766,-25.0,0.0,-963.0,0,0,0,0.604546070098877,-0.6035118103027344,6.737013101577759
1762512765.4699054,-21.0,22.0,-943.0,0,0,0,0.604546070098877,-0.6035118103027344,6.737013101577759
1762512765.5703788,-31.0,13.0,-927.0,0,0,-1,0.604546070098877,-0.6035118103027344,6.636539697647095
1762512765.670632,-13.0,9.0,-942.0,0,0,-1,0.604546070098877,-0.6035118103027344,6.5362865924835205
1762512765.7709332,12.0,9.0,-949.0,0,0,-2,0.604546070098877,-0.6035118103027344,6.335684061050415
1762512765.8712714,-16.0,3.0,-904.0,0,0,-3,0.604546070098877,-0.6035118103027344,6.034669399261475
1762512765.971594,-10.0,2.0,-940.0,0,0,-3,0.604546070098877,-0.6035118103027344,5.733701229095459
1762512766.0724783,-21.0,0.0,-947.0,0,0,-4,0.604546070098877,-0.6035118103027344,5.330164432525635
1762512766.172969,-16.0,7.0,-988.0,0,0,-5,0.604546070098877,-0.6035118103027344,4.827710390090942
1762512766.2736976,-16.0,7.0,-988.0,0,0,-5,0.604546070098877,-0.6035118103027344,4.324067831039429
1762512766.3745399,-11.0,6.0,-987.0,0,0,-5,0.604546070098877,-0.6035118103027344,3.819856643676758
1762512766.4753628,-17.0,6.0,-1008.0,0,0,-5,0.604546070098877,-0.6035118103027344,3.315742015838623
1762512766.5761025,-16.0,2.0,-1034.0,0,0,-5,0.604546070098877,-0.6035118103027344,2.8120434284210205
1762512766.677045,15.0,17.0,-996.0,0,0,-5,0.604546070098877,-0.6035118103027344,2.307330369949341
1762512766.7778597,7.0,35.0,-996.0,0,0,-5,0.604546070098877,-0.6035118103027344,1.8032574653625488
1762512766.8786445,7.0,23.0,-965.0,0,0,-5,0.604546070098877,-0.6035118103027344,1.2993335723876953
1762512766.9789207,17.0,11.0,-1009.0,0,0,-5,0.604546070098877,-0.6035118103027344,0.79795241355896
1762512767.0794115,26.0,37.0,-1046.0,0,0,-5,0.604546070098877,-0.6035118103027344,0.2954983711242676
1762512767.179942,12.0,-17.0,-1125.0,0,0,-4,0.604546070098877,-0.6035118103027344,-0.10662317276000977
1762512767.2804132,8.0,30.0,-1143.0,-1,0,-3,0.5040748119354248,-0.6035118103027344,-0.4080369472503662
1762512767.3812356,-12.0,13.0,-1171.0,0,0,-2,0.5040748119354248,-0.6035118103027344,-0.6096818447113037
1762512767.4815106,13.0,6.0,-1038.0,0,0,0,0.5040748119354248,-0.6035118103027344,-0.6096818447113037
1762512767.5819857,10.0,22.0,-982.0,0,0,0,0.5040748119354248,-0.6035118103027344,-0.6096818447113037
1762512767.6823232,3.0,7.0,-941.0,0,0,0,0.5040748119354248,-0.6035118103027344,-0.6096818447113037
1762512767.7828457,13.0,0.0,-922.0,0,0,0,0.5040748119354248,-0.6035118103027344,-0.6096818447113037
1762512767.8832924,2.0,9.0,-943.0,0,0,0,0.5040748119354248,-0.6035118103027344,-0.6096818447113037
1762512767.983809,74.0,-3.0,-930.0,0,0,0,0.5040748119354248,-0.6035118103027344,-0.6096818447113037
1762512768.0841742,-11.0,-38.0,-791.0,0,0,0,0.5040748119354248,-0.6035118103027344,-0.6096818447113037
1762512768.184599,-31.0,-20.0,-1099.0,0,0,0,0.5040748119354248,-0.6035118103027344,-0.6096818447113037
1762512768.2853987,-22.0,-2.0,-989.0,0,0,0,0.5040748119354248,-0.6035118103027344,-0.6096818447113037
1762512768.3859873,-14.0,9.0,-986.0,0,0,0,0.5040748119354248,-0.6035118103027344,-0.6096818447113037
1762512768.4865344,5.0,13.0,-1000.0,0,0,0,0.5040748119354248,-0.6035118103027344,-0.6096818447113037
1762512768.5870008,-12.0,14.0,-998.0,0,0,0,0.5040748119354248,-0.6035118103027344,-0.6096818447113037
1762512768.6875446,7.0,8.0,-997.0,0,0,0,0.5040748119354248,-0.6035118103027344,-0.6096818447113037
1762512768.7878027,14.0,22.0,-1003.0,0,0,0,0.5040748119354248,-0.6035118103027344,-0.6096818447113037
1762512768.888059,4.0,21.0,-1001.0,0,0,0,0.5040748119354248,-0.6035118103027344,-0.6096818447113037
1762512768.988235,-9.0,19.0,-1001.0,0,0,0,0.5040748119354248,-0.6035118103027344,-0.6096818447113037
1762512769.0884106,3.0,17.0,-1000.0,0,0,1,0.5040748119354248,-0.6035118103027344,-0.5095062255859375
1762512769.1890554,-10.0,11.0,-998.0,0,0,1,0.5040748119354248,-0.6035118103027344,-0.4088613986968994
1762512769.2893798,-6.0,17.0,-1006.0,0,0,1,0.5040748119354248,-0.6035118103027344,-0.30853700637817383
1762512769.3898296,-3.0,16.0,-1006.0,0,0,1,0.5040748119354248,-0.6035118103027344,-0.20808720588684082
1762512769.4901917,3.0,13.0,-1005.0,0,0,1,0.5040748119354248,-0.6035118103027344,-0.10772514343261719
1762512769.5906773,3.0,13.0,-1007.0,0,0,2,0.5040748119354248,-0.6035118103027344,0.0932459831237793
1762512769.6910968,3.0,13.0,-1007.0,0,0,2,0.5040748119354248,-0.6035118103027344,0.2940850257873535
1762512769.7915092,-4.0,12.0,-1003.0,0,0,2,0.5040748119354248,-0.6035118103027344,0.49490976333618164
1762512769.8916485,-4.0,12.0,-1003.0,0,0,2,0.5040748119354248,-0.6035118103027344,0.6951885223388672
1762512769.991912,-4.0,15.0,-1002.0,0,0,2,0.5040748119354248,-0.6035118103027344,0.8957152366638184
1762512770.0923991,-1.0,8.0,-1000.0,0,0,2,0.5040748119354248,-0.6035118103027344,1.0966897010803223
1762512770.1929786,-6.0,12.0,-1003.0,0,0,2,0.5040748119354248,-0.6035118103027344,1.2978487014770508
1762512770.2934163,-6.0,13.0,-1001.0,0,0,2,0.5040748119354248,-0.6035118103027344,1.4987239837646484
1762512770.394167,-3.0,12.0,-1004.0,0,0,2,0.5040748119354248,-0.6035118103027344,1.7002253532409668
1762512770.494428,0.0,11.0,-1004.0,0,0,2,0.5040748119354248,-0.6035118103027344,1.900747299194336
1762512770.5955734,-2.0,9.0,-1004.0,0,0,2,0.5040748119354248,-0.6035118103027344,2.1030383110046387
1762512770.6958797,-1.0,9.0,-1003.0,0,0,2,0.5040748119354248,-0.6035118103027344,2.3036508560180664
1762512770.7963636,-3.0,9.0,-1002.0,0,0,2,0.5040748119354248,-0.6035118103027344,2.5046186447143555
1762512770.8969045,-4.0,7.0,-1006.0,0,0,2,0.5040748119354248,-0.6035118103027344,2.705700397491455
1762512770.9974296,-3.0,14.0,-1003.0,0,0,2,0.5040748119354248,-0.6035118103027344,2.9067506790161133
1762512771.0981305,-2.0,12.0,-1006.0,0,0,2,0.5040748119354248,-0.6035118103027344,3.108152389526367
1762512771.1988182,-6.0,10.0,-1008.0,0,0,2,0.5040748119354248,-0.6035118103027344,3.30952787399292
1762512771.2993536,-2.0,13.0,-1006.0,0,0,2,0.5040748119354248,-0.6035118103027344,3.510598659515381
1762512771.399898,0.0,12.0,-1007.0,0,0,2,0.5040748119354248,-0.6035118103027344,3.7116875648498535
1762512771.5003889,-4.0,13.0,-1004.0,0,0,2,0.5040748119354248,-0.6035118103027344,3.9126691818237305
1762512771.6012304,-2.0,12.0,-1002.0,0,0,2,0.5040748119354248,-0.6035118103027344,4.114352226257324
1762512771.7020636,-2.0,9.0,-1004.0,0,0,1,0.5040748119354248,-0.6035118103027344,4.2151854038238525
1762512771.8025794,-3.0,12.0,-999.0,0,0,1,0.5040748119354248,-0.6035118103027344,4.315701246261597
1762512771.9032557,-2.0,9.0,-1004.0,0,0,1,0.5040748119354248,-0.6035118103027344,4.416377544403076
1762512772.0035799,-2.0,14.0,-1005.0,0,0,1,0.5040748119354248,-0.6035118103027344,4.516701698303223
1762512772.1042376,-1.0,13.0,-1003.0,0,0,1,0.5040748119354248,-0.6035118103027344,4.617359399795532
1762512772.2045782,-7.0,10.0,-1001.0,0,0,0,0.5040748119354248,-0.6035118103027344,4.617359399795532
1762512772.3053522,-4.0,11.0,-1006.0,0,0,0,0.5040748119354248,-0.6035118103027344,4.617359399795532
1762512772.4056728,-3.0,11.0,-1003.0,0,0,0,0.5040748119354248,-0.6035118103027344,4.617359399795532
1762512772.5061228,-2.0,12.0,-1004.0,0,0,0,0.5040748119354248,-0.6035118103027344,4.617359399795532
1762512772.6066563,-5.0,11.0,-1002.0,0,0,0,0.5040748119354248,-0.6035118103027344,4.617359399795532
1762512772.707295,-4.0,10.0,-1004.0,0,0,0,0.5040748119354248,-0.6035118103027344,4.617359399795532
1762512772.8076465,-4.0,12.0,-1001.0,0,0,0,0.5040748119354248,-0.6035118103027344,4.617359399795532
1762512772.9086502,-3.0,12.0,-1002.0,0,0,0,0.5040748119354248,-0.6035118103027344,4.617359399795532
1762512773.009047,-3.0,12.0,-1002.0,0,0,0,0.5040748119354248,-0.6035118103027344,4.617359399795532
1762512773.109375,-2.0,12.0,-1004.0,0,0,0,0.5040748119354248,-0.6035118103027344,4.617359399795532
1762512773.210054,-3.0,12.0,-1001.0,0,0,0,0.5040748119354248,-0.6035118103027344,4.617359399795532
1762512773.3104706,-3.0,12.0,-1001.0,0,0,0,0.5040748119354248,-0.6035118103027344,4.617359399795532
1762512773.410783,-3.0,12.0,-1001.0,0,0,0,0.5040748119354248,-0.6035118103027344,4.617359399795532
1762512773.5114703,-2.0,11.0,-1003.0,0,0,0,0.5040748119354248,-0.6035118103027344,4.617359399795532
1762512773.6118617,-4.0,11.0,-1003.0,0,0,0,0.5040748119354248,-0.6035118103027344,4.617359399795532
1762512773.7122338,-3.0,11.0,-1006.0,0,0,0,0.5040748119354248,-0.6035118103027344,4.617359399795532
1762512773.8129768,-3.0,12.0,-1005.0,0,0,0,0.5040748119354248,-0.6035118103027344,4.617359399795532
