Time,Ax,Ay,Az,Sx,Sy,Sz,x,y,z
1761038867.1963236,-10.0,-4.0,-996.0,0,0,0,0.0,0.0,0.0
1761038867.3094592,-9.0,-3.0,-1002.0,0,0,0,0.0,0.0,0.0
1761038867.4225645,-10.0,-4.0,-1001.0,0,0,0,0.0,0.0,0.0
1761038867.5343733,-9.0,-4.0,-1001.0,0,0,0,0.0,0.0,0.0
1761038867.644196,-9.0,-3.0,-996.0,0,0,0,0.0,0.0,0.0
1761038867.7602108,-10.0,-4.0,-999.0,0,0,0,0.0,0.0,0.0
1761038867.8614137,-9.0,-4.0,-1001.0,0,0,0,0.0,0.0,0.0
1761038867.97638,-8.0,-3.0,-1000.0,0,0,0,0.0,0.0,0.0
1761038868.0771034,-10.0,-3.0,-1001.0,0,0,0,0.0,0.0,0.0
1761038868.1782582,-8.0,-3.0,-1000.0,0,0,0,0.0,0.0,0.0
1761038868.2934353,-9.0,-4.0,-1001.0,0,0,0,0.0,0.0,0.0
1761038868.3947914,-9.0,-4.0,-999.0,0,0,0,0.0,0.0,0.0
1761038868.498924,-9.0,-4.0,-999.0,0,0,0,0.0,0.0,0.0
1761038868.608869,-10.0,-5.0,-999.0,0,0,0,0.0,0.0,0.0
1761038868.7095833,-9.0,-4.0,-1000.0,0,0,0,0.0,0.0,0.0
1761038868.822675,-9.0,-4.0,-1000.0,0,0,0,0.0,0.0,0.0
1761038868.9357288,-10.0,-3.0,-998.0,0,0,0,0.0,0.0,0.0
1761038869.0488613,-9.0,-4.0,-999.0,0,0,0,0.0,0.0,0.0
1761038869.159739,-10.0,-4.0,-1001.0,0,0,0,0.0,0.0,0.0
1761038869.261309,-9.0,-3.0,-999.0,0,0,0,0.0,0.0,0.0
1761038869.3753383,-8.0,-7.0,-999.0,0,0,0,0.0,0.0,0.0
1761038869.4898677,-8.0,-2.0,-997.0,0,0,0,0.0,0.0,0.0
1761038869.6023884,-15.0,-6.0,-1003.0,0,0,0,0.0,0.0,0.0
1761038869.7150784,0.0,-2.0,-994.0,0,0,0,0.0,0.0,0.0
1761038869.8268032,-8.0,-7.0,-999.0,0,0,0,0.0,0.0,0.0
1761038869.9292214,-4.0,-2.0,-991.0,0,0,0,0.0,0.0,0.0
1761038870.0434816,-15.0,-25.0,-1066.0,0,0,0,0.0,0.0,0.0
1761038870.144824,-5.0,-8.0,-1095.0,0,0,0,0.0,0.0,0.0
1761038870.2595935,15.0,-3.0,-1138.0,0,0,0,0.0,0.0,0.0
1761038870.3614976,-2.0,-20.0,-1189.0,0,-1,2,0.0,-0.10190415382385254,0.20380830764770508
1761038870.4771488,2.0,-29.0,-1071.0,0,-1,3,0.0,-0.21755528450012207,0.5507616996765137
1761038870.5809326,-7.0,-26.0,-1008.0,0,0,4,0.0,-0.21755528450012207,0.9658970832824707
1761038870.689162,5.0,-5.0,-1020.0,0,0,4,0.0,-0.21755528450012207,1.3988146781921387
1761038870.801009,1.0,-23.0,-1017.0,0,0,4,0.0,-0.21755528450012207,1.8462023735046387
1761038870.906681,-11.0,-23.0,-1023.0,0,0,4,0.0,-0.21755528450012207,2.268890857696533
1761038871.019179,0.0,-9.0,-987.0,0,0,4,0.0,-0.21755528450012207,2.7188830375671387
1761038871.130256,-1.0,-6.0,-974.0,0,0,4,0.0,-0.21755528450012207,3.1631903648376465
1761038871.2425206,14.0,-16.0,-948.0,0,0,4,0.0,-0.21755528450012207,3.6122488975524902
1761038871.344176,-1.0,-13.0,-949.0,0,0,4,0.0,-0.21755528450012207,4.018870830535889
1761038871.4559894,-9.0,-12.0,-938.0,0,0,4,0.0,-0.21755528450012207,4.466124057769775
1761038871.5687034,15.0,-7.0,-915.0,0,0,3,0.0,-0.21755528450012207,4.8042662143707275
1761038871.6812563,8.0,-7.0,-921.0,0,0,2,0.0,-0.21755528450012207,5.029371976852417
1761038871.7936232,-22.0,-15.0,-915.0,0,0,1,0.0,-0.21755528450012207,5.1417388916015625
1761038871.9086957,8.0,0.0,-909.0,0,0,0,0.0,-0.21755528450012207,5.1417388916015625
1761038872.020787,-4.0,-5.0,-910.0,0,0,0,0.0,-0.21755528450012207,5.1417388916015625
1761038872.1338646,7.0,3.0,-924.0,0,0,0,0.0,-0.21755528450012207,5.1417388916015625
1761038872.2459652,1.0,-15.0,-942.0,0,0,0,0.0,-0.21755528450012207,5.1417388916015625
1761038872.3579335,-5.0,-39.0,-972.0,0,0,-1,0.0,-0.21755528450012207,5.029770612716675
1761038872.474686,-12.0,-28.0,-1003.0,0,0,-1,0.0,-0.21755528450012207,4.913018226623535
1761038872.586719,-24.0,-19.0,-1005.0,0,0,-1,0.0,-0.21755528450012207,4.800985097885132
1761038872.6998832,-1.0,-6.0,-996.0,0,0,-1,0.0,-0.21755528450012207,4.687820911407471
1761038872.812922,-12.0,-18.0,-1019.0,0,0,-1,0.0,-0.21755528450012207,4.574782133102417
1761038872.9265776,-7.0,-20.0,-1010.0,0,0,-1,0.0,-0.21755528450012207,4.4611265659332275
1761038873.0408034,-10.0,-24.0,-1026.0,0,0,-1,0.0,-0.21755528450012207,4.346900701522827
1761038873.15317,-4.0,-24.0,-1036.0,0,0,-1,0.0,-0.21755528450012207,4.234534025192261
1761038873.2660577,-3.0,-29.0,-1018.0,0,0,-1,0.0,-0.21755528450012207,4.121646404266357
1761038873.3780642,-4.0,-22.0,-1034.0,0,0,0,0.0,-0.21755528450012207,4.121646404266357
1761038873.4927201,3.0,-10.0,-1024.0,0,0,0,0.0,-0.21755528450012207,4.121646404266357
1761038873.605763,0.0,-25.0,-1015.0,0,0,0,0.0,-0.21755528450012207,4.121646404266357
1761038873.7182486,2.0,-20.0,-1008.0,0,0,0,0.0,-0.21755528450012207,4.121646404266357
1761038873.8313446,-25.0,-22.0,-992.0,0,0,0,0.0,-0.21755528450012207,4.121646404266357
1761038873.9432316,-5.0,-7.0,-1019.0,0,0,0,0.0,-0.21755528450012207,4.121646404266357
1761038874.0442832,-12.0,-21.0,-1013.0,0,0,0,0.0,-0.21755528450012207,4.121646404266357
1761038874.1570053,-11.0,-18.0,-996.0,0,0,0,0.0,-0.21755528450012207,4.121646404266357
1761038874.2701135,7.0,-10.0,-992.0,0,0,0,0.0,-0.21755528450012207,4.121646404266357
1761038874.382653,14.0,-5.0,-977.0,0,0,0,0.0,-0.21755528450012207,4.121646404266357
1761038874.4953744,-5.0,-21.0,-1011.0,0,0,0,0.0,-0.21755528450012207,4.121646404266357
1761038874.6076458,-6.0,-4.0,-996.0,0,0,0,0.0,-0.21755528450012207,4.121646404266357
1761038874.7211587,-3.0,-14.0,-992.0,0,0,0,0.0,-0.21755528450012207,4.121646404266357
1761038874.8265371,-16.0,-15.0,-982.0,0,0,0,0.0,-0.21755528450012207,4.121646404266357
1761038874.9434547,0.0,-5.0,-967.0,0,0,0,0.0,-0.21755528450012207,4.121646404266357
1761038875.0443132,-10.0,-15.0,-1000.0,0,0,0,0.0,-0.21755528450012207,4.121646404266357
1761038875.1570115,0.0,-13.0,-971.0,0,0,0,0.0,-0.21755528450012207,4.121646404266357
1761038875.2694595,-10.0,-26.0,-1002.0,0,0,0,0.0,-0.21755528450012207,4.121646404266357
1761038875.3769083,-10.0,-17.0,-1000.0,0,0,0,0.0,-0.21755528450012207,4.121646404266357
1761038875.4785657,-21.0,-13.0,-980.0,0,0,0,0.0,-0.21755528450012207,4.121646404266357
1761038875.593042,-2.0,-20.0,-1028.0,0,0,0,0.0,-0.21755528450012207,4.121646404266357
1761038875.6949413,-7.0,-3.0,-1006.0,0,0,0,0.0,-0.21755528450012207,4.121646404266357
1761038875.8104188,-16.0,-33.0,-1001.0,0,0,0,0.0,-0.21755528450012207,4.121646404266357
1761038875.91142,-15.0,-22.0,-1010.0,0,0,0,0.0,-0.21755528450012207,4.121646404266357
1761038876.01173,-10.0,-30.0,-992.0,0,0,0,0.0,-0.21755528450012207,4.121646404266357
1761038876.127118,3.0,-23.0,-988.0,0,0,0,0.0,-0.21755528450012207,4.121646404266357
1761038876.2395153,-8.0,-23.0,-964.0,0,0,0,0.0,-0.21755528450012207,4.121646404266357
1761038876.352337,-1.0,-14.0,-1010.0,0,0,0,0.0,-0.21755528450012207,4.121646404266357
1761038876.465938,-8.0,-27.0,-1002.0,0,0,0,0.0,-0.21755528450012207,4.121646404266357
1761038876.5782723,3.0,-21.0,-977.0,0,0,0,0.0,-0.21755528450012207,4.121646404266357
1761038876.6926708,1.0,-19.0,-1004.0,0,0,0,0.0,-0.21755528450012207,4.121646404266357
1761038876.8051734,12.0,-10.0,-981.0,0,0,0,0.0,-0.21755528450012207,4.121646404266357
1761038876.9181495,4.0,-11.0,-1002.0,0,0,0,0.0,-0.21755528450012207,4.121646404266357
1761038877.0310473,4.0,-13.0,-989.0,0,0,0,0.0,-0.21755528450012207,4.121646404266357
1761038877.1443737,4.0,-11.0,-1002.0,0,0,0,0.0,-0.21755528450012207,4.121646404266357
1761038877.256889,-9.0,-16.0,-979.0,0,0,0,0.0,-0.21755528450012207,4.121646404266357
1761038877.370701,-10.0,-21.0,-987.0,0,0,0,0.0,-0.21755528450012207,4.121646404266357
1761038877.4829173,-25.0,-18.0,-984.0,0,0,0,0.0,-0.21755528450012207,4.121646404266357
1761038877.5951798,-13.0,-7.0,-987.0,0,0,0,0.0,-0.21755528450012207,4.121646404266357
1761038877.7097325,9.0,-17.0,-978.0,0,0,0,0.0,-0.21755528450012207,4.121646404266357
1761038877.8238773,3.0,-6.0,-974.0,0,0,0,0.0,-0.21755528450012207,4.121646404266357
1761038877.9365652,-15.0,-22.0,-982.0,0,0,0,0.0,-0.21755528450012207,4.121646404266357
1761038878.0490217,-16.0,-17.0,-1004.0,0,0,0,0.0,-0.21755528450012207,4.121646404266357
1761038878.1620314,15.0,-1.0,-1004.0,0,0,0,0.0,-0.21755528450012207,4.121646404266357
1761038878.2758856,1.0,-15.0,-998.0,0,0,0,0.0,-0.21755528450012207,4.121646404266357
1761038878.3891466,0.0,-16.0,-1016.0,0,0,0,0.0,-0.21755528450012207,4.121646404266357
1761038878.5021694,7.0,-13.0,-991.0,0,0,0,0.0,-0.21755528450012207,4.121646404266357
1761038878.6151245,4.0,-17.0,-983.0,0,0,0,0.0,-0.21755528450012207,4.121646404266357
1761038878.7286503,-6.0,-31.0,-996.0,0,0,0,0.0,-0.21755528450012207,4.121646404266357
1761038878.8418062,-4.0,-13.0,-994.0,0,0,0,0.0,-0.21755528450012207,4.121646404266357
1761038878.954939,-14.0,-34.0,-992.0,0,0,0,0.0,-0.21755528450012207,4.121646404266357
1761038879.0666409,-19.0,-13.0,-976.0,0,0,0,0.0,-0.21755528450012207,4.121646404266357
1761038879.1802177,11.0,-28.0,-993.0,0,0,0,0.0,-0.21755528450012207,4.121646404266357
1761038879.2931607,10.0,-14.0,-1023.0,0,0,0,0.0,-0.21755528450012207,4.121646404266357
1761038879.4079957,2.0,-21.0,-979.0,0,0,0,0.0,-0.21755528450012207,4.121646404266357
1761038879.5205705,-11.0,-16.0,-991.0,0,0,0,0.0,-0.21755528450012207,4.121646404266357
1761038879.633613,-22.0,-11.0,-989.0,0,0,0,0.0,-0.21755528450012207,4.121646404266357
1761038879.745794,-27.0,-25.0,-988.0,0,0,0,0.0,-0.21755528450012207,4.121646404266357
1761038879.8561287,1.0,-25.0,-1006.0,0,0,0,0.0,-0.21755528450012207,4.121646404266357
1761038879.9594147,-15.0,-26.0,-1011.0,0,0,0,0.0,-0.21755528450012207,4.121646404266357
1761038880.0719907,-8.0,-34.0,-995.0,0,0,0,0.0,-0.21755528450012207,4.121646404266357
1761038880.1849015,-8.0,-13.0,-988.0,0,0,0,0.0,-0.21755528450012207,4.121646404266357
1761038880.286775,-8.0,-15.0,-1011.0,0,0,0,0.0,-0.21755528450012207,4.121646404266357
1761038880.3937602,-28.0,-10.0,-994.0,0,0,0,0.0,-0.21755528450012207,4.121646404266357
1761038880.4948897,-8.0,-15.0,-1008.0,0,0,0,0.0,-0.21755528450012207,4.121646404266357
1761038880.5982606,-14.0,-40.0,-996.0,0,0,0,0.0,-0.21755528450012207,4.121646404266357
1761038880.6988316,-21.0,-1.0,-992.0,0,0,0,0.0,-0.21755528450012207,4.121646404266357
1761038880.8101397,-27.0,-20.0,-981.0,0,0,0,0.0,-0.21755528450012207,4.121646404266357
1761038880.911644,-12.0,-20.0,-1011.0,0,0,0,0.0,-0.21755528450012207,4.121646404266357
1761038881.0270724,-39.0,-23.0,-953.0,0,0,0,0.0,-0.21755528450012207,4.121646404266357
1761038881.1435926,-26.0,-19.0,-1015.0,0,0,0,0.0,-0.21755528450012207,4.121646404266357
1761038881.255263,-13.0,-17.0,-1012.0,0,0,0,0.0,-0.21755528450012207,4.121646404266357
1761038881.367954,-15.0,-32.0,-1010.0,0,0,0,0.0,-0.21755528450012207,4.121646404266357
1761038881.475036,-10.0,-11.0,-1020.0,0,0,0,0.0,-0.21755528450012207,4.121646404266357
1761038881.587708,-32.0,-19.0,-1004.0,0,0,0,0.0,-0.21755528450012207,4.121646404266357
1761038881.7015214,-20.0,-45.0,-1011.0,0,0,0,0.0,-0.21755528450012207,4.121646404266357
1761038881.8123674,12.0,-25.0,-1004.0,0,0,0,0.0,-0.21755528450012207,4.121646404266357
1761038881.9251838,-3.0,-6.0,-1008.0,0,0,0,0.0,-0.21755528450012207,4.121646404266357
1761038882.0407953,-10.0,-37.0,-981.0,-1,0,0,-0.11561155319213867,-0.21755528450012207,4.121646404266357
1761038882.1533928,-8.0,-22.0,-955.0,-1,0,0,-0.2282090187072754,-0.21755528450012207,4.121646404266357
1761038882.2665677,-2.0,-5.0,-992.0,-1,0,0,-0.3413839340209961,-0.21755528450012207,4.121646404266357
1761038882.3787522,0.0,-15.0,-1014.0,-1,0,0,-0.4535684585571289,-0.21755528450012207,4.121646404266357
1761038882.4937334,-11.0,-18.0,-990.0,0,0,0,-0.4535684585571289,-0.21755528450012207,4.121646404266357
1761038882.6067245,-14.0,-13.0,-1002.0,0,0,0,-0.4535684585571289,-0.21755528450012207,4.121646404266357
1761038882.719104,-1.0,-35.0,-1035.0,0,0,0,-0.4535684585571289,-0.21755528450012207,4.121646404266357
1761038882.832703,0.0,-36.0,-1020.0,0,0,0,-0.4535684585571289,-0.21755528450012207,4.121646404266357
1761038882.9442053,-10.0,-40.0,-1005.0,0,0,0,-0.4535684585571289,-0.21755528450012207,4.121646404266357
1761038883.0587492,3.0,-36.0,-1018.0,0,0,0,-0.4535684585571289,-0.21755528450012207,4.121646404266357
1761038883.1714935,-15.0,-5.0,-983.0,-1,0,0,-0.5663127899169922,-0.21755528450012207,4.121646404266357
1761038883.2845032,4.0,-24.0,-992.0,-1,0,0,-0.6793224811553955,-0.21755528450012207,4.121646404266357
1761038883.3970075,0.0,0.0,-997.0,-1,0,0,-0.7918267250061035,-0.21755528450012207,4.121646404266357
1761038883.5082753,4.0,-11.0,-973.0,-1,0,0,-0.9030945301055908,-0.21755528450012207,4.121646404266357
1761038883.6223836,-23.0,-9.0,-971.0,-1,0,0,-1.0172028541564941,-0.21755528450012207,4.121646404266357
1761038883.7331848,-1.0,-14.0,-979.0,0,0,0,-1.0172028541564941,-0.21755528450012207,4.121646404266357
1761038883.843687,-23.0,-10.0,-996.0,0,0,0,-1.0172028541564941,-0.21755528450012207,4.121646404266357
1761038883.9557106,-6.0,-6.0,-1017.0,0,0,0,-1.0172028541564941,-0.21755528450012207,4.121646404266357
1761038884.0607767,1.0,-19.0,-1012.0,0,0,0,-1.0172028541564941,-0.21755528450012207,4.121646404266357
1761038884.1712234,0.0,-14.0,-1005.0,0,0,0,-1.0172028541564941,-0.21755528450012207,4.121646404266357
1761038884.2817156,5.0,-16.0,-1040.0,-1,0,0,-1.127695083618164,-0.21755528450012207,4.121646404266357
1761038884.3923743,-11.0,-9.0,-1037.0,-1,0,0,-1.2383537292480469,-0.21755528450012207,4.121646404266357
1761038884.5039499,-2.0,-1.0,-1017.0,-1,0,0,-1.3499293327331543,-0.21755528450012207,4.121646404266357
1761038884.6093495,0.0,-12.0,-1020.0,-1,0,0,-1.4553289413452148,-0.21755528450012207,4.121646404266357
1761038884.7203531,2.0,-9.0,-991.0,-1,0,0,-1.5663325786590576,-0.21755528450012207,4.121646404266357
1761038884.83117,-12.0,-14.0,-992.0,-1,0,0,-1.6771495342254639,-0.21755528450012207,4.121646404266357
1761038884.9419177,-33.0,0.0,-997.0,-1,0,0,-1.7878971099853516,-0.21755528450012207,4.121646404266357
1761038885.0530386,-6.0,-4.0,-987.0,-1,0,0,-1.8990180492401123,-0.21755528450012207,4.121646404266357
1761038885.159005,-3.0,-9.0,-960.0,-1,0,0,-2.0049843788146973,-0.21755528450012207,4.121646404266357
1761038885.2695508,-13.0,-7.0,-968.0,-1,0,0,-2.115530252456665,-0.21755528450012207,4.121646404266357
1761038885.3808808,0.0,-18.0,-950.0,-1,0,0,-2.226860284805298,-0.21755528450012207,4.121646404266357
1761038885.492021,-16.0,-9.0,-989.0,-1,0,0,-2.338000535964966,-0.21755528450012207,4.121646404266357
1761038885.602636,20.0,-18.0,-1001.0,-1,0,0,-2.448615550994873,-0.21755528450012207,4.121646404266357
1761038885.7084439,0.0,-23.0,-1009.0,-1,0,0,-2.5544233322143555,-0.21755528450012207,4.121646404266357
1761038885.8195305,3.0,-29.0,-1038.0,-1,0,0,-2.6655099391937256,-0.21755528450012207,4.121646404266357
1761038885.9303458,-21.0,1.0,-1013.0,-1,0,0,-2.776325225830078,-0.21755528450012207,4.121646404266357
1761038886.0421076,0.0,-13.0,-1004.0,0,-1,0,-2.776325225830078,-0.3293170928955078,4.121646404266357
1761038886.1533384,-31.0,-2.0,-1008.0,0,-1,0,-2.776325225830078,-0.4405479431152344,4.121646404266357
1761038886.2586782,-31.0,-2.0,-1008.0,0,-1,0,-2.776325225830078,-0.5458877086639404,4.121646404266357
1761038886.3711083,-10.0,-2.0,-1020.0,0,-1,0,-2.776325225830078,-0.6583178043365479,4.121646404266357
1761038886.4840355,1.0,-10.0,-1008.0,0,-1,0,-2.776325225830078,-0.771245002746582,4.121646404266357
1761038886.5964684,11.0,-3.0,-990.0,0,-1,0,-2.776325225830078,-0.8836779594421387,4.121646404266357
1761038886.6996105,-3.0,6.0,-1013.0,0,-1,0,-2.776325225830078,-0.9868199825286865,4.121646404266357
1761038886.8062806,-11.0,-1.0,-1017.0,0,-1,0,-2.776325225830078,-1.0934901237487793,4.121646404266357
1761038886.917269,-4.0,-12.0,-974.0,0,-1,0,-2.776325225830078,-1.2044785022735596,4.121646404266357
1761038887.0354538,-12.0,8.0,-987.0,0,-1,0,-2.776325225830078,-1.3226633071899414,4.121646404266357
1761038887.145949,2.0,-7.0,-988.0,0,-1,0,-2.776325225830078,-1.4331583976745605,4.121646404266357
1761038887.2594173,0.0,0.0,-982.0,0,-1,0,-2.776325225830078,-1.5466268062591553,4.121646404266357
1761038887.3705344,-18.0,-17.0,-1006.0,0,-1,0,-2.776325225830078,-1.6577439308166504,4.121646404266357
1761038887.4814172,9.0,-34.0,-992.0,0,-1,0,-2.776325225830078,-1.7686266899108887,4.121646404266357
1761038887.591776,0.0,-9.0,-989.0,0,-1,0,-2.776325225830078,-1.8789854049682617,4.121646404266357
1761038887.70406,-13.0,-21.0,-999.0,0,0,0,-2.776325225830078,-1.8789854049682617,4.121646404266357
1761038887.8092754,28.0,21.0,-987.0,0,0,0,-2.776325225830078,-1.8789854049682617,4.121646404266357
1761038887.9212995,17.0,15.0,-998.0,0,-1,0,-2.776325225830078,-1.9910094738006592,4.121646404266357
1761038888.0338602,8.0,-18.0,-977.0,0,0,0,-2.776325225830078,-1.9910094738006592,4.121646404266357
1761038888.1470933,-29.0,2.0,-1004.0,0,0,0,-2.776325225830078,-1.9910094738006592,4.121646404266357
1761038888.2601624,-8.0,-12.0,-1014.0,0,0,0,-2.776325225830078,-1.9910094738006592,4.121646404266357
1761038888.3761358,-20.0,-22.0,-979.0,0,0,0,-2.776325225830078,-1.9910094738006592,4.121646404266357
1761038888.4888458,-26.0,-5.0,-1008.0,0,0,0,-2.776325225830078,-1.9910094738006592,4.121646404266357
1761038888.601896,-11.0,4.0,-990.0,0,0,0,-2.776325225830078,-1.9910094738006592,4.121646404266357
1761038888.714488,-11.0,4.0,-990.0,0,0,0,-2.776325225830078,-1.9910094738006592,4.121646404266357
1761038888.8151116,-12.0,22.0,-985.0,0,0,0,-2.776325225830078,-1.9910094738006592,4.121646404266357
1761038888.9241989,-1.0,-1.0,-996.0,0,0,0,-2.776325225830078,-1.9910094738006592,4.121646404266357
1761038889.0373144,-16.0,-27.0,-1007.0,0,0,0,-2.776325225830078,-1.9910094738006592,4.121646404266357
1761038889.1497808,7.0,-12.0,-1008.0,0,0,0,-2.776325225830078,-1.9910094738006592,4.121646404266357
1761038889.2628574,-16.0,3.0,-1002.0,0,0,0,-2.776325225830078,-1.9910094738006592,4.121646404266357
1761038889.3763115,-1.0,-6.0,-988.0,0,0,0,-2.776325225830078,-1.9910094738006592,4.121646404266357
1761038889.4905267,-23.0,1.0,-1017.0,0,0,0,-2.776325225830078,-1.9910094738006592,4.121646404266357
1761038889.6035604,9.0,7.0,-1008.0,0,0,0,-2.776325225830078,-1.9910094738006592,4.121646404266357
1761038889.7159863,-4.0,-30.0,-1021.0,0,0,0,-2.776325225830078,-1.9910094738006592,4.121646404266357
1761038889.8289926,4.0,-31.0,-980.0,0,0,0,-2.776325225830078,-1.9910094738006592,4.121646404266357
1761038889.9426737,-3.0,3.0,-996.0,0,0,0,-2.776325225830078,-1.9910094738006592,4.121646404266357
1761038890.0556786,0.0,-3.0,-972.0,0,0,0,-2.776325225830078,-1.9910094738006592,4.121646404266357
1761038890.1688192,-24.0,-30.0,-987.0,0,0,0,-2.776325225830078,-1.9910094738006592,4.121646404266357
1761038890.2816606,-14.0,-1.0,-983.0,0,0,0,-2.776325225830078,-1.9910094738006592,4.121646404266357
1761038890.394698,24.0,-22.0,-1000.0,0,0,0,-2.776325225830078,-1.9910094738006592,4.121646404266357
1761038890.5075345,4.0,7.0,-1007.0,0,0,0,-2.776325225830078,-1.9910094738006592,4.121646404266357
1761038890.6211736,-10.0,3.0,-1010.0,0,0,0,-2.776325225830078,-1.9910094738006592,4.121646404266357
1761038890.734888,-6.0,-8.0,-1021.0,0,0,0,-2.776325225830078,-1.9910094738006592,4.121646404266357
1761038890.8479593,0.0,-26.0,-995.0,0,0,0,-2.776325225830078,-1.9910094738006592,4.121646404266357
1761038890.9491265,-11.0,-13.0,-985.0,0,0,0,-2.776325225830078,-1.9910094738006592,4.121646404266357
1761038891.0566247,10.0,-12.0,-1006.0,0,0,0,-2.776325225830078,-1.9910094738006592,4.121646404266357
1761038891.1698,-11.0,-19.0,-1009.0,0,0,0,-2.776325225830078,-1.9910094738006592,4.121646404266357
1761038891.282888,-13.0,-6.0,-1007.0,0,0,0,-2.776325225830078,-1.9910094738006592,4.121646404266357
1761038891.3952837,21.0,-4.0,-997.0,0,0,0,-2.776325225830078,-1.9910094738006592,4.121646404266357
1761038891.508445,-6.0,-13.0,-997.0,0,0,0,-2.776325225830078,-1.9910094738006592,4.121646404266357
1761038891.6230597,-11.0,-5.0,-1004.0,0,0,0,-2.776325225830078,-1.9910094738006592,4.121646404266357
1761038891.7359488,1.0,0.0,-1018.0,0,0,0,-2.776325225830078,-1.9910094738006592,4.121646404266357
1761038891.8485696,-16.0,14.0,-985.0,0,0,0,-2.776325225830078,-1.9910094738006592,4.121646404266357
1761038891.9605522,-7.0,-24.0,-984.0,0,0,0,-2.776325225830078,-1.9910094738006592,4.121646404266357
1761038892.0764017,-17.0,-6.0,-992.0,0,0,0,-2.776325225830078,-1.9910094738006592,4.121646404266357
1761038892.1889834,9.0,-25.0,-959.0,0,0,0,-2.776325225830078,-1.9910094738006592,4.121646404266357
1761038892.3023546,-16.0,9.0,-990.0,0,0,0,-2.776325225830078,-1.9910094738006592,4.121646404266357
1761038892.4156542,5.0,1.0,-1016.0,0,0,0,-2.776325225830078,-1.9910094738006592,4.121646404266357
1761038892.5299816,10.0,-6.0,-1005.0,0,0,0,-2.776325225830078,-1.9910094738006592,4.121646404266357
1761038892.640463,15.0,0.0,-994.0,0,0,0,-2.776325225830078,-1.9910094738006592,4.121646404266357
1761038892.752899,-4.0,-11.0,-1012.0,0,0,0,-2.776325225830078,-1.9910094738006592,4.121646404266357
1761038892.864648,11.0,-12.0,-982.0,0,0,0,-2.776325225830078,-1.9910094738006592,4.121646404266357
1761038892.9776692,1.0,-17.0,-980.0,0,0,0,-2.776325225830078,-1.9910094738006592,4.121646404266357
1761038893.078977,3.0,-33.0,-1006.0,0,0,0,-2.776325225830078,-1.9910094738006592,4.121646404266357
1761038893.1900637,2.0,-7.0,-993.0,0,0,0,-2.776325225830078,-1.9910094738006592,4.121646404266357
1761038893.302036,-16.0,-35.0,-993.0,0,0,0,-2.776325225830078,-1.9910094738006592,4.121646404266357
1761038893.4133492,-6.0,12.0,-990.0,0,0,0,-2.776325225830078,-1.9910094738006592,4.121646404266357
1761038893.5259948,-8.0,15.0,-969.0,0,0,0,-2.776325225830078,-1.9910094738006592,4.121646404266357
1761038893.6425123,-6.0,17.0,-1005.0,0,0,0,-2.776325225830078,-1.9910094738006592,4.121646404266357
1761038893.7556455,-6.0,13.0,-1004.0,0,0,0,-2.776325225830078,-1.9910094738006592,4.121646404266357
1761038893.8688362,-21.0,-13.0,-1009.0,0,-1,0,-2.776325225830078,-2.1042001247406006,4.121646404266357
1761038893.9818711,11.0,-12.0,-991.0,0,0,0,-2.776325225830078,-2.1042001247406006,4.121646404266357
1761038894.094512,10.0,13.0,-1025.0,0,0,0,-2.776325225830078,-2.1042001247406006,4.121646404266357
1761038894.207504,21.0,-7.0,-988.0,0,0,0,-2.776325225830078,-2.1042001247406006,4.121646404266357
1761038894.3197136,-26.0,3.0,-1012.0,0,0,0,-2.776325225830078,-2.1042001247406006,4.121646404266357
1761038894.4329762,-16.0,-12.0,-1026.0,0,0,0,-2.776325225830078,-2.1042001247406006,4.121646404266357
1761038894.5450544,-16.0,-8.0,-990.0,0,0,0,-2.776325225830078,-2.1042001247406006,4.121646404266357
1761038894.6572757,-20.0,-1.0,-999.0,0,0,0,-2.776325225830078,-2.1042001247406006,4.121646404266357
1761038894.7578795,-2.0,-31.0,-1009.0,0,0,0,-2.776325225830078,-2.1042001247406006,4.121646404266357
1761038894.8692772,-2.0,2.0,-1001.0,0,0,0,-2.776325225830078,-2.1042001247406006,4.121646404266357
1761038894.9803255,10.0,-1.0,-982.0,0,0,0,-2.776325225830078,-2.1042001247406006,4.121646404266357
1761038895.0925167,4.0,-16.0,-996.0,0,0,0,-2.776325225830078,-2.1042001247406006,4.121646404266357
1761038895.1943166,0.0,-20.0,-1003.0,0,0,0,-2.776325225830078,-2.1042001247406006,4.121646404266357
1761038895.3048291,-4.0,3.0,-1004.0,0,0,0,-2.776325225830078,-2.1042001247406006,4.121646404266357
1761038895.416706,-9.0,-3.0,-1007.0,0,0,0,-2.776325225830078,-2.1042001247406006,4.121646404266357
1761038895.5284102,4.0,-9.0,-999.0,0,0,0,-2.776325225830078,-2.1042001247406006,4.121646404266357
1761038895.6395273,-4.0,-13.0,-987.0,0,0,0,-2.776325225830078,-2.1042001247406006,4.121646404266357
1761038895.7425208,-11.0,-37.0,-997.0,0,0,0,-2.776325225830078,-2.1042001247406006,4.121646404266357
1761038895.853995,-17.0,-38.0,-1006.0,0,0,0,-2.776325225830078,-2.1042001247406006,4.121646404266357
1761038895.9645839,-3.0,-22.0,-992.0,0,0,0,-2.776325225830078,-2.1042001247406006,4.121646404266357
1761038896.076402,6.0,3.0,-985.0,0,0,0,-2.776325225830078,-2.1042001247406006,4.121646404266357
1761038896.1880434,-2.0,-10.0,-1002.0,0,0,0,-2.776325225830078,-2.1042001247406006,4.121646404266357
1761038896.2922637,-5.0,2.0,-996.0,0,0,0,-2.776325225830078,-2.1042001247406006,4.121646404266357
1761038896.4035,-1.0,0.0,-1021.0,0,0,0,-2.776325225830078,-2.1042001247406006,4.121646404266357
1761038896.5143073,-17.0,-21.0,-1006.0,0,0,0,-2.776325225830078,-2.1042001247406006,4.121646404266357
1761038896.626475,-13.0,-12.0,-994.0,0,0,0,-2.776325225830078,-2.1042001247406006,4.121646404266357
1761038896.738336,-12.0,-19.0,-1013.0,0,0,0,-2.776325225830078,-2.1042001247406006,4.121646404266357
1761038896.840771,-6.0,-26.0,-1008.0,0,0,0,-2.776325225830078,-2.1042001247406006,4.121646404266357
1761038896.9522705,-21.0,-12.0,-1029.0,0,0,0,-2.776325225830078,-2.1042001247406006,4.121646404266357
1761038897.0633063,4.0,-32.0,-987.0,0,0,0,-2.776325225830078,-2.1042001247406006,4.121646404266357
1761038897.175391,-15.0,-24.0,-1013.0,0,0,0,-2.776325225830078,-2.1042001247406006,4.121646404266357
1761038897.286372,-5.0,-36.0,-988.0,0,0,0,-2.776325225830078,-2.1042001247406006,4.121646404266357
1761038897.3906825,-2.0,-36.0,-990.0,0,0,0,-2.776325225830078,-2.1042001247406006,4.121646404266357
1761038897.5015194,5.0,-41.0,-995.0,0,0,0,-2.776325225830078,-2.1042001247406006,4.121646404266357
1761038897.6128721,-24.0,-34.0,-1001.0,0,0,0,-2.776325225830078,-2.1042001247406006,4.121646404266357
1761038897.7241201,-1.0,10.0,-1019.0,0,0,0,-2.776325225830078,-2.1042001247406006,4.121646404266357
1761038897.8344073,6.0,-6.0,-1003.0,0,0,0,-2.776325225830078,-2.1042001247406006,4.121646404266357
1761038897.938514,-18.0,-22.0,-1008.0,0,0,0,-2.776325225830078,-2.1042001247406006,4.121646404266357
1761038898.0494668,-13.0,5.0,-998.0,0,0,0,-2.776325225830078,-2.1042001247406006,4.121646404266357
1761038898.1607645,16.0,-13.0,-983.0,0,0,0,-2.776325225830078,-2.1042001247406006,4.121646404266357
1761038898.2717638,-9.0,-41.0,-1018.0,0,0,0,-2.776325225830078,-2.1042001247406006,4.121646404266357
1761038898.3776965,-1.0,-4.0,-1017.0,0,0,0,-2.776325225830078,-2.1042001247406006,4.121646404266357
1761038898.4881988,16.0,-42.0,-985.0,0,0,0,-2.776325225830078,-2.1042001247406006,4.121646404266357
1761038898.5993648,15.0,0.0,-1015.0,0,0,0,-2.776325225830078,-2.1042001247406006,4.121646404266357
1761038898.711084,-4.0,-25.0,-995.0,0,0,0,-2.776325225830078,-2.1042001247406006,4.121646404266357
1761038898.8220584,3.0,-30.0,-971.0,0,0,0,-2.776325225830078,-2.1042001247406006,4.121646404266357
1761038898.925574,6.0,-4.0,-1003.0,0,0,0,-2.776325225830078,-2.1042001247406006,4.121646404266357
1761038899.0374138,10.0,14.0,-1002.0,0,0,0,-2.776325225830078,-2.1042001247406006,4.121646404266357
1761038899.1486263,12.0,5.0,-1034.0,0,0,0,-2.776325225830078,-2.1042001247406006,4.121646404266357
1761038899.2599,-9.0,-1.0,-1024.0,0,0,0,-2.776325225830078,-2.1042001247406006,4.121646404266357
1761038899.371413,-3.0,-36.0,-1000.0,0,0,0,-2.776325225830078,-2.1042001247406006,4.121646404266357
1761038899.4751172,-24.0,-7.0,-1023.0,0,0,0,-2.776325225830078,-2.1042001247406006,4.121646404266357
1761038899.5861335,-8.0,-1.0,-975.0,0,0,0,-2.776325225830078,-2.1042001247406006,4.121646404266357
1761038899.697051,-1.0,-18.0,-971.0,0,0,0,-2.776325225830078,-2.1042001247406006,4.121646404266357
1761038899.8087866,-7.0,9.0,-971.0,0,0,0,-2.776325225830078,-2.1042001247406006,4.121646404266357
1761038899.9196754,21.0,-1.0,-993.0,0,0,0,-2.776325225830078,-2.1042001247406006,4.121646404266357
1761038900.0240653,2.0,-31.0,-999.0,0,0,0,-2.776325225830078,-2.1042001247406006,4.121646404266357
1761038900.1357334,8.0,-22.0,-995.0,0,0,0,-2.776325225830078,-2.1042001247406006,4.121646404266357
1761038900.2462943,-16.0,-19.0,-1000.0,0,0,0,-2.776325225830078,-2.1042001247406006,4.121646404266357
1761038900.3585112,-10.0,-17.0,-992.0,0,0,0,-2.776325225830078,-2.1042001247406006,4.121646404266357
1761038900.4692974,0.0,-8.0,-1032.0,0,0,0,-2.776325225830078,-2.1042001247406006,4.121646404266357
1761038900.573092,6.0,-2.0,-980.0,0,0,0,-2.776325225830078,-2.1042001247406006,4.121646404266357
1761038900.6842527,-7.0,-31.0,-1032.0,0,0,0,-2.776325225830078,-2.1042001247406006,4.121646404266357
1761038900.7952757,4.0,-21.0,-995.0,0,0,0,-2.776325225830078,-2.1042001247406006,4.121646404266357
1761038900.90631,15.0,-13.0,-988.0,0,0,0,-2.776325225830078,-2.1042001247406006,4.121646404266357
1761038901.0175722,-6.0,-21.0,-980.0,0,0,0,-2.776325225830078,-2.1042001247406006,4.121646404266357
1761038901.1248252,-7.0,-12.0,-983.0,0,0,0,-2.776325225830078,-2.1042001247406006,4.121646404266357
1761038901.2356155,-32.0,-14.0,-1022.0,0,0,0,-2.776325225830078,-2.1042001247406006,4.121646404266357
1761038901.3459823,23.0,-20.0,-994.0,0,0,0,-2.776325225830078,-2.1042001247406006,4.121646404266357
1761038901.4570148,12.0,-13.0,-1011.0,0,0,0,-2.776325225830078,-2.1042001247406006,4.121646404266357
1761038901.5611231,-7.0,-17.0,-996.0,0,0,0,-2.776325225830078,-2.1042001247406006,4.121646404266357
1761038901.6712863,-1.0,7.0,-999.0,0,0,0,-2.776325225830078,-2.1042001247406006,4.121646404266357
1761038901.7826583,9.0,-18.0,-989.0,0,0,0,-2.776325225830078,-2.1042001247406006,4.121646404266357
1761038901.8932574,-14.0,-17.0,-984.0,0,0,0,-2.776325225830078,-2.1042001247406006,4.121646404266357
1761038902.0047657,-6.0,-22.0,-976.0,0,0,0,-2.776325225830078,-2.1042001247406006,4.121646404266357
1761038902.109975,-7.0,-32.0,-992.0,0,0,0,-2.776325225830078,-2.1042001247406006,4.121646404266357
1761038902.2215488,12.0,6.0,-993.0,0,0,0,-2.776325225830078,-2.1042001247406006,4.121646404266357
1761038902.3322804,-9.0,-13.0,-995.0,0,0,0,-2.776325225830078,-2.1042001247406006,4.121646404266357
1761038902.4440207,1.0,-18.0,-1016.0,0,0,0,-2.776325225830078,-2.1042001247406006,4.121646404266357
1761038902.5562072,3.0,-14.0,-979.0,0,0,0,-2.776325225830078,-2.1042001247406006,4.121646404266357
1761038902.659046,1.0,9.0,-977.0,0,0,0,-2.776325225830078,-2.1042001247406006,4.121646404266357
1761038902.769587,-17.0,-20.0,-1008.0,0,0,0,-2.776325225830078,-2.1042001247406006,4.121646404266357
1761038902.8813133,-7.0,-29.0,-999.0,0,0,0,-2.776325225830078,-2.1042001247406006,4.121646404266357
1761038902.9922335,-5.0,-17.0,-992.0,0,0,0,-2.776325225830078,-2.1042001247406006,4.121646404266357
1761038903.1047285,0.0,3.0,-977.0,0,0,0,-2.776325225830078,-2.1042001247406006,4.121646404266357
1761038903.2074292,-9.0,-17.0,-1022.0,0,0,0,-2.776325225830078,-2.1042001247406006,4.121646404266357
1761038903.3182118,-16.0,-10.0,-1011.0,0,0,0,-2.776325225830078,-2.1042001247406006,4.121646404266357
1761038903.4297404,0.0,-3.0,-1013.0,0,0,0,-2.776325225830078,-2.1042001247406006,4.121646404266357
1761038903.5411978,-5.0,-20.0,-1026.0,0,0,0,-2.776325225830078,-2.1042001247406006,4.121646404266357
1761038903.6523027,-2.0,-16.0,-1005.0,0,0,0,-2.776325225830078,-2.1042001247406006,4.121646404266357
1761038903.758195,3.0,-10.0,-1016.0,0,0,0,-2.776325225830078,-2.1042001247406006,4.121646404266357
1761038903.868814,-3.0,-17.0,-1002.0,0,0,0,-2.776325225830078,-2.1042001247406006,4.121646404266357
1761038903.9806125,6.0,-20.0,-989.0,0,0,0,-2.776325225830078,-2.1042001247406006,4.121646404266357
1761038904.0922608,-25.0,-4.0,-1021.0,0,0,0,-2.776325225830078,-2.1042001247406006,4.121646404266357
1761038904.20455,-6.0,-9.0,-993.0,0,0,0,-2.776325225830078,-2.1042001247406006,4.121646404266357
1761038904.3062959,-7.0,-17.0,-989.0,0,0,0,-2.776325225830078,-2.1042001247406006,4.121646404266357
1761038904.4182887,13.0,-7.0,-1020.0,0,0,0,-2.776325225830078,-2.1042001247406006,4.121646404266357
1761038904.5299091,-20.0,-38.0,-991.0,0,0,0,-2.776325225830078,-2.1042001247406006,4.121646404266357
1761038904.6414642,6.0,-11.0,-996.0,0,0,0,-2.776325225830078,-2.1042001247406006,4.121646404266357
1761038904.7433684,-18.0,-10.0,-1013.0,0,0,0,-2.776325225830078,-2.1042001247406006,4.121646404266357
1761038904.8450568,-4.0,-25.0,-982.0,0,0,0,-2.776325225830078,-2.1042001247406006,4.121646404266357
1761038904.9600646,-14.0,-23.0,-987.0,0,0,0,-2.776325225830078,-2.1042001247406006,4.121646404266357
1761038905.0707645,18.0,-18.0,-1022.0,0,0,0,-2.776325225830078,-2.1042001247406006,4.121646404266357
1761038905.1830175,0.0,-14.0,-996.0,0,0,0,-2.776325225830078,-2.1042001247406006,4.121646404266357
1761038905.2936058,2.0,-31.0,-981.0,0,0,0,-2.776325225830078,-2.1042001247406006,4.121646404266357
1761038905.3951237,11.0,-10.0,-996.0,0,0,0,-2.776325225830078,-2.1042001247406006,4.121646404266357
1761038905.5101843,8.0,-26.0,-994.0,0,0,0,-2.776325225830078,-2.1042001247406006,4.121646404266357
1761038905.6262581,-8.0,-17.0,-977.0,0,0,0,-2.776325225830078,-2.1042001247406006,4.121646404266357
1761038905.7283359,-2.0,-10.0,-972.0,0,0,0,-2.776325225830078,-2.1042001247406006,4.121646404266357
1761038905.8326106,-19.0,-36.0,-1029.0,0,0,0,-2.776325225830078,-2.1042001247406006,4.121646404266357
1761038905.9431322,14.0,-6.0,-957.0,0,0,0,-2.776325225830078,-2.1042001247406006,4.121646404266357
1761038906.0450313,7.0,-29.0,-1009.0,0,0,0,-2.776325225830078,-2.1042001247406006,4.121646404266357
1761038906.1483505,10.0,-28.0,-1030.0,0,0,0,-2.776325225830078,-2.1042001247406006,4.121646404266357
1761038906.257229,0.0,-26.0,-1017.0,0,0,0,-2.776325225830078,-2.1042001247406006,4.121646404266357
1761038906.3597522,-20.0,-7.0,-1036.0,0,0,0,-2.776325225830078,-2.1042001247406006,4.121646404266357
1761038906.471687,0.0,-36.0,-1013.0,1,0,0,-2.6643903255462646,-2.1042001247406006,4.121646404266357
1761038906.582763,8.0,-15.0,-990.0,1,0,0,-2.553314447402954,-2.1042001247406006,4.121646404266357
1761038906.6939712,7.0,-23.0,-1024.0,1,0,0,-2.442106246948242,-2.1042001247406006,4.121646404266357
1761038906.8046556,20.0,-14.0,-996.0,1,0,0,-2.3314218521118164,-2.1042001247406006,4.121646404266357
1761038906.9077258,0.0,-27.0,-975.0,1,0,0,-2.228351593017578,-2.1042001247406006,4.121646404266357
1761038907.0187407,8.0,-6.0,-992.0,1,0,0,-2.1173367500305176,-2.1042001247406006,4.121646404266357
1761038907.1297474,4.0,-14.0,-993.0,1,0,0,-2.0063300132751465,-2.1042001247406006,4.121646404266357
1761038907.2404363,-4.0,-7.0,-978.0,1,0,0,-1.8956410884857178,-2.1042001247406006,4.121646404266357
1761038907.3518825,-15.0,-45.0,-997.0,1,0,0,-1.7841949462890625,-2.1042001247406006,4.121646404266357
1761038907.4581058,4.0,-12.0,-990.0,1,0,0,-1.677971601486206,-2.1042001247406006,4.121646404266357
1761038907.5691688,19.0,-10.0,-1010.0,1,0,0,-1.566908597946167,-2.1042001247406006,4.121646404266357
1761038907.680243,0.0,-27.0,-1016.0,0,0,0,-1.566908597946167,-2.1042001247406006,4.121646404266357
1761038907.7909005,-5.0,-20.0,-1005.0,0,0,0,-1.566908597946167,-2.1042001247406006,4.121646404266357
1761038907.9027648,1.0,-17.0,-1032.0,0,0,0,-1.566908597946167,-2.1042001247406006,4.121646404266357
1761038908.0051448,-16.0,-2.0,-993.0,1,0,0,-1.4645285606384277,-2.1042001247406006,4.121646404266357
1761038908.1160204,10.0,-7.0,-989.0,1,0,0,-1.3536529541015625,-2.1042001247406006,4.121646404266357
1761038908.2276144,2.0,1.0,-1009.0,1,0,0,-1.2420589923858643,-2.1042001247406006,4.121646404266357
1761038908.3387966,6.0,-16.0,-996.0,1,0,0,-1.1308767795562744,-2.1042001247406006,4.121646404266357
1761038908.44422,22.0,-17.0,-986.0,1,0,0,-1.0254533290863037,-2.1042001247406006,4.121646404266357
1761038908.556058,17.0,-14.0,-981.0,1,0,0,-0.9136154651641846,-2.1042001247406006,4.121646404266357
1761038908.6667366,-7.0,-17.0,-974.0,1,0,0,-0.8029367923736572,-2.1042001247406006,4.121646404266357
1761038908.7779925,12.0,-10.0,-976.0,1,0,0,-0.691680908203125,-2.1042001247406006,4.121646404266357
1761038908.889514,-11.0,-17.0,-1028.0,1,0,0,-0.5801594257354736,-2.1042001247406006,4.121646404266357
1761038908.9931254,1.0,-23.0,-1011.0,1,0,0,-0.4765479564666748,-2.1042001247406006,4.121646404266357
1761038909.1053805,-8.0,9.0,-1033.0,1,0,0,-0.36429286003112793,-2.1042001247406006,4.121646404266357
1761038909.2173204,-8.0,-35.0,-1027.0,1,0,0,-0.2523529529571533,-2.1042001247406006,4.121646404266357
1761038909.3275573,5.0,8.0,-1037.0,1,0,0,-0.14211606979370117,-2.1042001247406006,4.121646404266357
1761038909.4383993,2.0,-18.0,-1027.0,1,0,0,-0.03127408027648926,-2.1042001247406006,4.121646404266357
1761038909.542729,-3.0,-3.0,-999.0,1,0,0,0.07305550575256348,-2.1042001247406006,4.121646404266357
1761038909.6548703,-12.0,-12.0,-1007.0,0,0,0,0.07305550575256348,-2.1042001247406006,4.121646404266357
1761038909.765718,13.0,0.0,-1017.0,0,0,0,0.07305550575256348,-2.1042001247406006,4.121646404266357
1761038909.875983,2.0,-5.0,-994.0,0,0,0,0.07305550575256348,-2.1042001247406006,4.121646404266357
1761038909.987132,-6.0,0.0,-984.0,0,0,0,0.07305550575256348,-2.1042001247406006,4.121646404266357
1761038910.0920253,-24.0,-21.0,-986.0,0,0,0,0.07305550575256348,-2.1042001247406006,4.121646404266357
1761038910.2033987,-7.0,6.0,-965.0,0,0,0,0.07305550575256348,-2.1042001247406006,4.121646404266357
1761038910.3144274,-18.0,-4.0,-968.0,0,0,0,0.07305550575256348,-2.1042001247406006,4.121646404266357
1761038910.425484,-23.0,-11.0,-999.0,0,0,0,0.07305550575256348,-2.1042001247406006,4.121646404266357
1761038910.5357108,0.0,2.0,-1027.0,0,0,0,0.07305550575256348,-2.1042001247406006,4.121646404266357
1761038910.6404214,-18.0,-13.0,-1017.0,0,0,0,0.07305550575256348,-2.1042001247406006,4.121646404266357
1761038910.7519825,-21.0,-21.0,-1002.0,0,0,0,0.07305550575256348,-2.1042001247406006,4.121646404266357
1761038910.8629806,-14.0,-17.0,-997.0,0,0,0,0.07305550575256348,-2.1042001247406006,4.121646404266357
1761038910.9748378,16.0,-10.0,-1005.0,0,0,0,0.07305550575256348,-2.1042001247406006,4.121646404266357
1761038911.0859928,-17.0,-36.0,-981.0,0,0,0,0.07305550575256348,-2.1042001247406006,4.121646404266357
1761038911.189835,14.0,-2.0,-975.0,0,0,0,0.07305550575256348,-2.1042001247406006,4.121646404266357
1761038911.3007622,-20.0,-14.0,-1012.0,0,0,0,0.07305550575256348,-2.1042001247406006,4.121646404266357
1761038911.4114058,-10.0,-20.0,-997.0,0,0,0,0.07305550575256348,-2.1042001247406006,4.121646404266357
1761038911.521902,-26.0,-35.0,-990.0,0,0,0,0.07305550575256348,-2.1042001247406006,4.121646404266357
1761038911.6275675,2.0,-6.0,-975.0,0,0,0,0.07305550575256348,-2.1042001247406006,4.121646404266357
1761038911.7406538,-8.0,-36.0,-993.0,0,0,0,0.07305550575256348,-2.1042001247406006,4.121646404266357
1761038911.8529513,0.0,-24.0,-1002.0,0,0,0,0.07305550575256348,-2.1042001247406006,4.121646404266357
1761038911.9654975,-1.0,-36.0,-1020.0,0,0,0,0.07305550575256348,-2.1042001247406006,4.121646404266357
1761038912.0786576,9.0,-9.0,-1004.0,0,0,0,0.07305550575256348,-2.1042001247406006,4.121646404266357
1761038912.1917906,18.0,-22.0,-1002.0,0,0,0,0.07305550575256348,-2.1042001247406006,4.121646404266357
1761038912.3042393,25.0,4.0,-984.0,0,0,0,0.07305550575256348,-2.1042001247406006,4.121646404266357
1761038912.4173117,12.0,-12.0,-1011.0,0,0,0,0.07305550575256348,-2.1042001247406006,4.121646404266357
1761038912.5305314,10.0,9.0,-995.0,0,0,0,0.07305550575256348,-2.1042001247406006,4.121646404266357
1761038912.6438801,-9.0,-21.0,-1014.0,0,0,0,0.07305550575256348,-2.1042001247406006,4.121646404266357
1761038912.7596986,1.0,-18.0,-1017.0,0,0,0,0.07305550575256348,-2.1042001247406006,4.121646404266357
1761038912.8711843,15.0,-5.0,-1011.0,0,0,0,0.07305550575256348,-2.1042001247406006,4.121646404266357
1761038912.9836912,-9.0,-5.0,-1018.0,0,0,0,0.07305550575256348,-2.1042001247406006,4.121646404266357
1761038913.0963216,-18.0,-4.0,-998.0,0,0,0,0.07305550575256348,-2.1042001247406006,4.121646404266357
1761038913.2101302,1.0,8.0,-1005.0,0,0,0,0.07305550575256348,-2.1042001247406006,4.121646404266357
1761038913.3253415,0.0,0.0,-995.0,0,0,0,0.07305550575256348,-2.1042001247406006,4.121646404266357
1761038913.4374344,21.0,1.0,-986.0,0,1,0,0.07305550575256348,-1.9921071529388428,4.121646404266357
1761038913.5494974,-15.0,1.0,-982.0,0,1,0,0.07305550575256348,-1.8800442218780518,4.121646404266357
1761038913.662386,-19.0,-12.0,-997.0,0,1,0,0.07305550575256348,-1.767155647277832,4.121646404266357
1761038913.7757027,-5.0,-12.0,-972.0,0,1,0,0.07305550575256348,-1.653838872909546,4.121646404266357
1761038913.8888414,-1.0,-29.0,-1013.0,0,1,0,0.07305550575256348,-1.5407001972198486,4.121646404266357
1761038914.0020716,-17.0,-28.0,-1019.0,0,1,0,0.07305550575256348,-1.4274699687957764,4.121646404266357
1761038914.114648,-9.0,-37.0,-1004.0,0,1,0,0.07305550575256348,-1.3148934841156006,4.121646404266357
1761038914.2271242,5.0,-5.0,-1008.0,0,1,0,0.07305550575256348,-1.2024173736572266,4.121646404266357
1761038914.3425024,-1.0,-33.0,-1003.0,0,1,0,0.07305550575256348,-1.0870392322540283,4.121646404266357
1761038914.455331,-20.0,-25.0,-1004.0,0,1,0,0.07305550575256348,-0.9742105007171631,4.121646404266357
1761038914.5663717,2.0,-13.0,-1014.0,0,1,0,0.07305550575256348,-0.8631699085235596,4.121646404266357
1761038914.678887,-1.0,-12.0,-1026.0,0,1,0,0.07305550575256348,-0.7506546974182129,4.121646404266357
1761038914.793145,-10.0,-9.0,-1003.0,0,1,0,0.07305550575256348,-0.6363966464996338,4.121646404266357
1761038914.9065502,0.0,-17.0,-995.0,0,1,0,0.07305550575256348,-0.522991418838501,4.121646404266357
1761038915.019583,-7.0,-9.0,-1001.0,0,1,0,0.07305550575256348,-0.4099586009979248,4.121646404266357
1761038915.1312501,4.0,-4.0,-988.0,0,1,0,0.07305550575256348,-0.2982914447784424,4.121646404266357
1761038915.2431104,3.0,10.0,-971.0,0,1,0,0.07305550575256348,-0.1864311695098877,4.121646404266357
1761038915.3439617,-10.0,-3.0,-955.0,0,1,0,0.07305550575256348,-0.08557987213134766,4.121646404266357
1761038915.4547358,5.0,17.0,-962.0,0,1,0,0.07305550575256348,0.025194168090820312,4.121646404266357
1761038915.5670998,-9.0,1.0,-961.0,0,1,0,0.07305550575256348,0.1375582218170166,4.121646404266357
1761038915.6796565,14.0,-22.0,-971.0,0,1,0,0.07305550575256348,0.25011491775512695,4.121646404266357
1761038915.7917967,19.0,11.0,-999.0,0,1,0,0.07305550575256348,0.3622550964355469,4.121646404266357
1761038915.8935478,-17.0,7.0,-1012.0,0,1,0,0.07305550575256348,0.4640061855316162,4.121646404266357
1761038916.0071707,-8.0,-24.0,-1026.0,0,1,0,0.07305550575256348,0.5776290893554688,4.121646404266357
1761038916.1199126,8.0,-28.0,-1009.0,0,1,0,0.07305550575256348,0.690371036529541,4.121646404266357
1761038916.2318342,-5.0,-8.0,-1052.0,0,1,0,0.07305550575256348,0.8022925853729248,4.121646404266357
1761038916.344048,-8.0,-15.0,-1014.0,0,0,0,0.07305550575256348,0.8022925853729248,4.121646404266357
1761038916.445363,-5.0,-17.0,-1024.0,0,1,0,0.07305550575256348,0.9036076068878174,4.121646404266357
1761038916.557145,0.0,1.0,-991.0,0,1,0,0.07305550575256348,1.0153896808624268,4.121646404266357
1761038916.668113,5.0,10.0,-1004.0,0,1,0,0.07305550575256348,1.1263575553894043,4.121646404266357
1761038916.7787316,14.0,-22.0,-956.0,0,1,0,0.07305550575256348,1.236976146697998,4.121646404266357
1761038916.890774,0.0,-12.0,-954.0,0,1,0,0.07305550575256348,1.3490185737609863,4.121646404266357
1761038916.9919536,-6.0,16.0,-971.0,0,1,0,0.07305550575256348,1.4501981735229492,4.121646404266357
1761038917.1042302,5.0,-28.0,-994.0,0,1,0,0.07305550575256348,1.5624747276306152,4.121646404266357
1761038917.2164545,-5.0,-19.0,-970.0,0,1,0,0.07305550575256348,1.674699068069458,4.121646404266357
1761038917.3274643,-7.0,-13.0,-995.0,0,1,0,0.07305550575256348,1.7857089042663574,4.121646404266357
1761038917.4379387,-8.0,-26.0,-1002.0,0,1,0,0.07305550575256348,1.8961832523345947,4.121646404266357
1761038917.5405014,-14.0,2.0,-1012.0,0,1,0,0.07305550575256348,1.9987459182739258,4.121646404266357
1761038917.651988,1.0,-13.0,-1000.0,0,1,0,0.07305550575256348,2.1102325916290283,4.121646404266357
1761038917.7635617,0.0,4.0,-1018.0,-1,1,0,-0.03851819038391113,2.221806287765503,4.121646404266357
1761038917.874942,-7.0,2.0,-1024.0,-1,1,0,-0.14989852905273438,2.333186626434326,4.121646404266357
1761038917.978128,0.0,18.0,-989.0,0,0,0,-0.14989852905273438,2.333186626434326,4.121646404266357
1761038918.0895498,-15.0,3.0,-1027.0,-1,0,0,-0.2613203525543213,2.333186626434326,4.121646404266357
1761038918.2014563,13.0,-33.0,-1023.0,-1,0,0,-0.3732268810272217,2.333186626434326,4.121646404266357
1761038918.3126378,-13.0,-19.0,-978.0,-1,0,0,-0.4844083786010742,2.333186626434326,4.121646404266357
1761038918.4230063,-9.0,-21.0,-974.0,-1,0,0,-0.5947768688201904,2.333186626434326,4.121646404266357
1761038918.5267434,-18.0,-16.0,-994.0,0,0,0,-0.5947768688201904,2.333186626434326,4.121646404266357
1761038918.6373384,0.0,10.0,-960.0,0,0,0,-0.5947768688201904,2.333186626434326,4.121646404266357
1761038918.748966,-10.0,-26.0,-986.0,0,0,0,-0.5947768688201904,2.333186626434326,4.121646404266357
1761038918.8602498,-12.0,-18.0,-970.0,0,0,0,-0.5947768688201904,2.333186626434326,4.121646404266357
1761038918.9721467,-9.0,-39.0,-1019.0,0,0,0,-0.5947768688201904,2.333186626434326,4.121646404266357
1761038919.0773828,-11.0,-32.0,-998.0,0,0,0,-0.5947768688201904,2.333186626434326,4.121646404266357
1761038919.1886294,5.0,4.0,-1012.0,-1,0,0,-0.7060234546661377,2.333186626434326,4.121646404266357
1761038919.3006697,-21.0,-25.0,-990.0,-1,0,0,-0.8180637359619141,2.333186626434326,4.121646404266357
1761038919.4136598,-5.0,0.0,-1037.0,-1,0,0,-0.931053876876831,2.333186626434326,4.121646404266357
1761038919.5266066,-2.0,0.0,-1048.0,0,0,0,-0.931053876876831,2.333186626434326,4.121646404266357
1761038919.6423616,-5.0,1.0,-1017.0,0,0,0,-0.931053876876831,2.333186626434326,4.121646404266357
1761038919.7555323,-3.0,-6.0,-1036.0,0,0,0,-0.931053876876831,2.333186626434326,4.121646404266357
1761038919.8688517,-8.0,-26.0,-1015.0,0,0,0,-0.931053876876831,2.333186626434326,4.121646404266357
1761038919.9793108,-8.0,-17.0,-990.0,0,0,0,-0.931053876876831,2.333186626434326,4.121646404266357
1761038920.090359,-10.0,-3.0,-976.0,0,0,0,-0.931053876876831,2.333186626434326,4.121646404266357
1761038920.204134,-2.0,-13.0,-1001.0,0,0,0,-0.931053876876831,2.333186626434326,4.121646404266357
1761038920.315606,0.0,-17.0,-987.0,0,0,0,-0.931053876876831,2.333186626434326,4.121646404266357
1761038920.4276352,-8.0,-17.0,-982.0,0,0,0,-0.931053876876831,2.333186626434326,4.121646404266357
1761038920.5395913,-23.0,-9.0,-1002.0,0,0,0,-0.931053876876831,2.333186626434326,4.121646404266357
1761038920.6446397,-10.0,-12.0,-1010.0,0,0,0,-0.931053876876831,2.333186626434326,4.121646404266357
1761038920.7563794,10.0,-25.0,-1001.0,0,0,0,-0.931053876876831,2.333186626434326,4.121646404266357
1761038920.8667638,0.0,-8.0,-1014.0,0,0,0,-0.931053876876831,2.333186626434326,4.121646404266357
1761038920.9800699,26.0,-14.0,-989.0,0,0,0,-0.931053876876831,2.333186626434326,4.121646404266357
1761038921.09246,11.0,-13.0,-982.0,0,0,0,-0.931053876876831,2.333186626434326,4.121646404266357
1761038921.19349,-2.0,2.0,-1000.0,0,0,0,-0.931053876876831,2.333186626434326,4.121646404266357
1761038921.3066936,-3.0,-32.0,-1006.0,0,0,0,-0.931053876876831,2.333186626434326,4.121646404266357
1761038921.4202578,0.0,0.0,-1013.0,0,0,0,-0.931053876876831,2.333186626434326,4.121646404266357
1761038921.534174,-19.0,-10.0,-1030.0,0,0,0,-0.931053876876831,2.333186626434326,4.121646404266357
1761038921.6473687,-1.0,13.0,-1009.0,0,0,0,-0.931053876876831,2.333186626434326,4.121646404266357
1761038921.7594876,16.0,-18.0,-1000.0,0,0,0,-0.931053876876831,2.333186626434326,4.121646404266357
1761038921.8721642,-12.0,-2.0,-1004.0,0,0,0,-0.931053876876831,2.333186626434326,4.121646404266357
1761038921.9850643,13.0,-24.0,-988.0,0,0,0,-0.931053876876831,2.333186626434326,4.121646404266357
1761038922.0975418,8.0,-42.0,-1010.0,0,0,0,-0.931053876876831,2.333186626434326,4.121646404266357
1761038922.2121484,-8.0,-41.0,-995.0,0,0,0,-0.931053876876831,2.333186626434326,4.121646404266357
1761038922.3240073,-12.0,-14.0,-1010.0,0,0,0,-0.931053876876831,2.333186626434326,4.121646404266357
1761038922.4366171,-13.0,0.0,-994.0,0,0,0,-0.931053876876831,2.333186626434326,4.121646404266357
1761038922.5492826,-2.0,-12.0,-999.0,0,0,0,-0.931053876876831,2.333186626434326,4.121646404266357
1761038922.6620483,-5.0,-14.0,-988.0,0,0,0,-0.931053876876831,2.333186626434326,4.121646404266357
1761038922.7789366,-7.0,-29.0,-1003.0,0,0,0,-0.931053876876831,2.333186626434326,4.121646404266357
1761038922.8909833,-21.0,-13.0,-978.0,0,0,0,-0.931053876876831,2.333186626434326,4.121646404266357
1761038923.0046217,6.0,-10.0,-991.0,0,0,0,-0.931053876876831,2.333186626434326,4.121646404266357
1761038923.117472,-11.0,-5.0,-971.0,0,0,0,-0.931053876876831,2.333186626434326,4.121646404266357
1761038923.2305143,-12.0,-6.0,-1002.0,0,0,0,-0.931053876876831,2.333186626434326,4.121646404266357
1761038923.3432865,-8.0,-21.0,-1003.0,0,0,0,-0.931053876876831,2.333186626434326,4.121646404266357
1761038923.4563274,2.0,-9.0,-996.0,0,0,0,-0.931053876876831,2.333186626434326,4.121646404266357
1761038923.5688062,22.0,-22.0,-970.0,0,0,0,-0.931053876876831,2.333186626434326,4.121646404266357
1761038923.6819963,-14.0,2.0,-989.0,0,0,0,-0.931053876876831,2.333186626434326,4.121646404266357
1761038923.7947187,0.0,-3.0,-1011.0,0,0,0,-0.931053876876831,2.333186626434326,4.121646404266357
1761038923.9079037,-20.0,-8.0,-998.0,0,0,0,-0.931053876876831,2.333186626434326,4.121646404266357
1761038924.0208158,4.0,-10.0,-994.0,0,0,0,-0.931053876876831,2.333186626434326,4.121646404266357
1761038924.1328216,-12.0,-4.0,-986.0,0,0,0,-0.931053876876831,2.333186626434326,4.121646404266357
1761038924.2457678,-16.0,6.0,-1010.0,0,0,0,-0.931053876876831,2.333186626434326,4.121646404266357
1761038924.358335,-14.0,-17.0,-1003.0,0,0,0,-0.931053876876831,2.333186626434326,4.121646404266357
1761038924.4744403,7.0,-48.0,-986.0,0,0,0,-0.931053876876831,2.333186626434326,4.121646404266357
1761038924.587345,-5.0,-9.0,-1027.0,0,0,0,-0.931053876876831,2.333186626434326,4.121646404266357
1761038924.700388,11.0,-36.0,-1011.0,0,0,0,-0.931053876876831,2.333186626434326,4.121646404266357
1761038924.8121367,-9.0,-43.0,-994.0,0,0,0,-0.931053876876831,2.333186626434326,4.121646404266357
1761038924.9258747,19.0,-33.0,-997.0,0,0,0,-0.931053876876831,2.333186626434326,4.121646404266357
1761038925.038917,-12.0,-22.0,-1011.0,0,0,0,-0.931053876876831,2.333186626434326,4.121646404266357
1761038925.150353,-3.0,0.0,-981.0,0,0,0,-0.931053876876831,2.333186626434326,4.121646404266357
1761038925.2621865,-3.0,9.0,-996.0,0,0,0,-0.931053876876831,2.333186626434326,4.121646404266357
1761038925.3752227,6.0,9.0,-1006.0,0,0,0,-0.931053876876831,2.333186626434326,4.121646404266357
1761038925.4907079,1.0,-2.0,-1012.0,0,0,0,-0.931053876876831,2.333186626434326,4.121646404266357
1761038925.6013293,6.0,-4.0,-989.0,0,0,0,-0.931053876876831,2.333186626434326,4.121646404266357
1761038925.713866,-19.0,-6.0,-990.0,0,0,0,-0.931053876876831,2.333186626434326,4.121646404266357
1761038925.8256085,-19.0,15.0,-1001.0,0,0,0,-0.931053876876831,2.333186626434326,4.121646404266357
1761038925.9286602,-4.0,13.0,-1001.0,0,0,0,-0.931053876876831,2.333186626434326,4.121646404266357
1761038926.0397103,-6.0,-2.0,-1013.0,0,0,0,-0.931053876876831,2.333186626434326,4.121646404266357
1761038926.1512613,12.0,0.0,-1010.0,0,0,0,-0.931053876876831,2.333186626434326,4.121646404266357
1761038926.26334,0.0,4.0,-1006.0,0,0,0,-0.931053876876831,2.333186626434326,4.121646404266357
1761038926.3751962,0.0,-7.0,-1002.0,0,0,0,-0.931053876876831,2.333186626434326,4.121646404266357
1761038926.4785028,-20.0,-7.0,-980.0,0,0,0,-0.931053876876831,2.333186626434326,4.121646404266357
1761038926.5916915,-14.0,13.0,-1048.0,0,0,0,-0.931053876876831,2.333186626434326,4.121646404266357
1761038926.7047844,5.0,9.0,-1008.0,0,0,0,-0.931053876876831,2.333186626434326,4.121646404266357
1761038926.8168292,-7.0,-15.0,-989.0,0,0,0,-0.931053876876831,2.333186626434326,4.121646404266357
1761038926.9298635,-4.0,-13.0,-989.0,0,0,0,-0.931053876876831,2.333186626434326,4.121646404266357
1761038927.043772,-14.0,-7.0,-986.0,0,0,0,-0.931053876876831,2.333186626434326,4.121646404266357
1761038927.1562457,2.0,-23.0,-980.0,0,0,0,-0.931053876876831,2.333186626434326,4.121646404266357
1761038927.268348,7.0,-1.0,-1005.0,0,0,0,-0.931053876876831,2.333186626434326,4.121646404266357
1761038927.3819172,-11.0,-12.0,-974.0,0,0,0,-0.931053876876831,2.333186626434326,4.121646404266357
1761038927.4949532,8.0,9.0,-1006.0,0,0,0,-0.931053876876831,2.333186626434326,4.121646404266357
1761038927.60995,-13.0,-22.0,-981.0,0,0,0,-0.931053876876831,2.333186626434326,4.121646404266357
1761038927.7211168,22.0,-12.0,-1013.0,0,0,0,-0.931053876876831,2.333186626434326,4.121646404266357
1761038927.833758,-11.0,-30.0,-1002.0,0,0,0,-0.931053876876831,2.333186626434326,4.121646404266357
1761038927.9464533,2.0,-9.0,-1027.0,0,0,0,-0.931053876876831,2.333186626434326,4.121646404266357
1761038928.0601017,-3.0,3.0,-1038.0,0,0,0,-0.931053876876831,2.333186626434326,4.121646404266357
1761038928.1737187,-9.0,-10.0,-994.0,0,0,0,-0.931053876876831,2.333186626434326,4.121646404266357
1761038928.286732,15.0,9.0,-1007.0,0,0,0,-0.931053876876831,2.333186626434326,4.121646404266357
1761038928.3977134,-10.0,-3.0,-1004.0,0,0,0,-0.931053876876831,2.333186626434326,4.121646404266357
1761038928.509882,-27.0,-11.0,-1038.0,0,0,0,-0.931053876876831,2.333186626434326,4.121646404266357
1761038928.6262467,-18.0,-10.0,-1009.0,0,0,0,-0.931053876876831,2.333186626434326,4.121646404266357
1761038928.7387543,-5.0,2.0,-982.0,0,0,0,-0.931053876876831,2.333186626434326,4.121646404266357
1761038928.8509731,9.0,4.0,-1014.0,0,0,0,-0.931053876876831,2.333186626434326,4.121646404266357
1761038928.9636066,9.0,-6.0,-989.0,0,0,0,-0.931053876876831,2.333186626434326,4.121646404266357
1761038929.0767858,11.0,-10.0,-977.0,0,0,0,-0.931053876876831,2.333186626434326,4.121646404266357
1761038929.1781428,-15.0,-22.0,-1014.0,0,0,0,-0.931053876876831,2.333186626434326,4.121646404266357
1761038929.2899146,-23.0,-16.0,-1049.0,0,0,0,-0.931053876876831,2.333186626434326,4.121646404266357
1761038929.4030514,1.0,2.0,-1014.0,0,0,0,-0.931053876876831,2.333186626434326,4.121646404266357
1761038929.5165555,0.0,-14.0,-978.0,0,0,0,-0.931053876876831,2.333186626434326,4.121646404266357
1761038929.6285203,-3.0,2.0,-1027.0,0,0,0,-0.931053876876831,2.333186626434326,4.121646404266357
1761038929.7408044,4.0,-3.0,-998.0,0,0,0,-0.931053876876831,2.333186626434326,4.121646404266357
1761038929.8456326,16.0,-11.0,-997.0,0,0,0,-0.931053876876831,2.333186626434326,4.121646404266357
1761038929.9602206,2.0,-11.0,-1009.0,0,0,0,-0.931053876876831,2.333186626434326,4.121646404266357
1761038930.0749743,-23.0,3.0,-1016.0,0,0,0,-0.931053876876831,2.333186626434326,4.121646404266357
1761038930.1787126,-21.0,-3.0,-1014.0,0,0,0,-0.931053876876831,2.333186626434326,4.121646404266357
1761038930.2916281,-16.0,0.0,-1007.0,0,0,0,-0.931053876876831,2.333186626434326,4.121646404266357
1761038930.3946126,-9.0,-11.0,-991.0,0,0,0,-0.931053876876831,2.333186626434326,4.121646404266357
1761038930.510959,-21.0,-3.0,-977.0,0,0,0,-0.931053876876831,2.333186626434326,4.121646404266357
1761038930.6127477,-9.0,3.0,-933.0,0,0,0,-0.931053876876831,2.333186626434326,4.121646404266357
1761038930.7132194,-11.0,-33.0,-936.0,0,0,-1,-0.931053876876831,2.333186626434326,4.021174669265747
1761038930.8276823,-6.0,2.0,-945.0,0,0,-2,-0.931053876876831,2.333186626434326,3.7922489643096924
1761038930.9280207,12.0,-18.0,-919.0,0,0,-2,-0.931053876876831,2.333186626434326,3.5915720462799072
1761038931.0292213,0.0,-13.0,-935.0,0,0,-3,-0.931053876876831,2.333186626434326,3.2879703044891357
1761038931.1327925,-4.0,-31.0,-939.0,0,0,-4,-0.931053876876831,2.333186626434326,2.873685598373413
1761038931.2446911,2.0,-28.0,-941.0,0,0,-4,-0.931053876876831,2.333186626434326,2.426090955734253
1761038931.359342,14.0,-19.0,-1001.0,0,0,-5,-0.931053876876831,2.333186626434326,1.8528361320495605
1761038931.4723845,11.0,6.0,-974.0,0,0,-5,-0.931053876876831,2.333186626434326,1.2876243591308594
1761038931.5855026,10.0,-7.0,-993.0,0,0,-5,-0.931053876876831,2.333186626434326,0.7220335006713867
1761038931.6974318,10.0,13.0,-1011.0,0,0,-5,-0.931053876876831,2.333186626434326,0.16238760948181152
1761038931.810582,-34.0,-20.0,-1003.0,0,0,-4,-0.931053876876831,2.333186626434326,-0.29021286964416504
1761038931.9225001,-3.0,4.0,-1030.0,0,0,-4,-0.931053876876831,2.333186626434326,-0.7378857135772705
1761038932.0354834,-3.0,-9.0,-1030.0,0,0,-4,-0.931053876876831,2.333186626434326,-1.1898186206817627
1761038932.1480215,2.0,0.0,-1070.0,0,0,-3,-0.931053876876831,2.333186626434326,-1.527432918548584
1761038932.2613075,7.0,5.0,-1057.0,0,0,-3,-0.931053876876831,2.333186626434326,-1.86729097366333
1761038932.3751705,0.0,5.0,-1069.0,0,0,-1,-0.931053876876831,2.333186626434326,-1.981153964996338
1761038932.4866078,-34.0,13.0,-1106.0,0,0,0,-0.931053876876831,2.333186626434326,-1.981153964996338
1761038932.5986469,-9.0,-8.0,-1091.0,0,0,0,-0.931053876876831,2.333186626434326,-1.981153964996338
1761038932.712065,1.0,-6.0,-1024.0,0,0,0,-0.931053876876831,2.333186626434326,-1.981153964996338
1761038932.826011,-28.0,-9.0,-964.0,0,0,0,-0.931053876876831,2.333186626434326,-1.981153964996338
1761038932.9406195,-2.0,-2.0,-947.0,0,0,0,-0.931053876876831,2.333186626434326,-1.981153964996338
1761038933.0541546,4.0,8.0,-834.0,0,0,0,-0.931053876876831,2.333186626434326,-1.981153964996338
1761038933.1671655,14.0,28.0,-852.0,0,0,0,-0.931053876876831,2.333186626434326,-1.981153964996338
1761038933.2801867,-1.0,-16.0,-1005.0,0,0,0,-0.931053876876831,2.333186626434326,-1.981153964996338
1761038933.393587,-5.0,7.0,-997.0,0,0,0,-0.931053876876831,2.333186626434326,-1.981153964996338
1761038933.506472,-4.0,-17.0,-993.0,0,0,0,-0.931053876876831,2.333186626434326,-1.981153964996338
1761038933.6186378,-7.0,-6.0,-998.0,0,0,0,-0.931053876876831,2.333186626434326,-1.981153964996338
1761038933.7314734,-6.0,-12.0,-995.0,0,0,0,-0.931053876876831,2.333186626434326,-1.981153964996338
1761038933.8444097,-4.0,-10.0,-995.0,0,0,0,-0.931053876876831,2.333186626434326,-1.981153964996338
1761038933.95955,0.0,-5.0,-999.0,0,0,0,-0.931053876876831,2.333186626434326,-1.981153964996338
1761038934.0725744,-2.0,-6.0,-998.0,0,0,0,-0.931053876876831,2.333186626434326,-1.981153964996338
1761038934.1860058,-8.0,-6.0,-1003.0,0,0,0,-0.931053876876831,2.333186626434326,-1.981153964996338
1761038934.2990487,-5.0,-4.0,-1006.0,0,0,0,-0.931053876876831,2.333186626434326,-1.981153964996338
1761038934.410549,-5.0,-8.0,-1002.0,0,0,1,-0.931053876876831,2.333186626434326,-1.8696537017822266
1761038934.5242178,-6.0,-7.0,-1004.0,0,0,1,-0.931053876876831,2.333186626434326,-1.7559847831726074
1761038934.6358523,-3.0,-9.0,-1004.0,0,0,1,-0.931053876876831,2.333186626434326,-1.644350290298462
1761038934.748168,-1.0,-6.0,-1005.0,0,0,1,-0.931053876876831,2.333186626434326,-1.5320346355438232
1761038934.8607802,-6.0,-2.0,-1005.0,0,0,1,-0.931053876876831,2.333186626434326,-1.4194223880767822
1761038934.976637,-7.0,-8.0,-1001.0,0,0,1,-0.931053876876831,2.333186626434326,-1.3035657405853271
1761038935.0898795,-2.0,-8.0,-1003.0,0,0,1,-0.931053876876831,2.333186626434326,-1.1903231143951416
1761038935.2016246,-4.0,-2.0,-1003.0,0,0,1,-0.931053876876831,2.333186626434326,-1.078577995300293
1761038935.3138316,-3.0,-8.0,-1006.0,0,0,1,-0.931053876876831,2.333186626434326,-0.9663710594177246
1761038935.4169366,-6.0,-5.0,-1007.0,0,0,0,-0.931053876876831,2.333186626434326,-0.9663710594177246
1761038935.5273652,-4.0,-7.0,-1004.0,0,0,0,-0.931053876876831,2.333186626434326,-0.9663710594177246
1761038935.6394827,-5.0,-9.0,-1004.0,0,0,0,-0.931053876876831,2.333186626434326,-0.9663710594177246
1761038935.7524865,-5.0,-7.0,-1005.0,0,0,0,-0.931053876876831,2.333186626434326,-0.9663710594177246
1761038935.8627126,-5.0,-4.0,-1007.0,0,0,0,-0.931053876876831,2.333186626434326,-0.9663710594177246
1761038935.9677207,-4.0,-5.0,-1006.0,0,0,0,-0.931053876876831,2.333186626434326,-0.9663710594177246
1761038936.0680356,-5.0,-6.0,-1007.0,0,0,0,-0.931053876876831,2.333186626434326,-0.9663710594177246
1761038936.1781056,-3.0,-6.0,-1007.0,0,0,0,-0.931053876876831,2.333186626434326,-0.9663710594177246
1761038936.27941,-3.0,-5.0,-1006.0,0,0,0,-0.931053876876831,2.333186626434326,-0.9663710594177246
1761038936.3941572,-5.0,-5.0,-1006.0,0,0,0,-0.931053876876831,2.333186626434326,-0.9663710594177246
1761038936.4948595,-5.0,-6.0,-1004.0,0,0,0,-0.931053876876831,2.333186626434326,-0.9663710594177246
1761038936.5964956,-4.0,-4.0,-1002.0,0,0,0,-0.931053876876831,2.333186626434326,-0.9663710594177246
1761038936.7106514,-6.0,-7.0,-1006.0,0,0,0,-0.931053876876831,2.333186626434326,-0.9663710594177246
1761038936.8225029,-4.0,-5.0,-1006.0,0,0,0,-0.931053876876831,2.333186626434326,-0.9663710594177246
1761038936.9353414,-4.0,-6.0,-1005.0,0,0,0,-0.931053876876831,2.333186626434326,-0.9663710594177246
1761038937.0480595,-4.0,-6.0,-1007.0,0,0,0,-0.931053876876831,2.333186626434326,-0.9663710594177246
1761038937.1586187,-4.0,-6.0,-1004.0,0,0,0,-0.931053876876831,2.333186626434326,-0.9663710594177246
1761038937.2716234,-5.0,-6.0,-1005.0,0,0,0,-0.931053876876831,2.333186626434326,-0.9663710594177246
