Time,Ax,Ay,Az,Sx,Sy,Sz,x,y,z
1762170526.8295116,-8.0,-2.0,-998.0,0,0,0,0.0,0.0,0.0
1762170526.9302657,-8.0,-1.0,-1001.0,0,0,0,0.0,0.0,0.0
1762170527.0306108,-7.0,0.0,-999.0,0,0,0,0.0,0.0,0.0
1762170527.130901,-7.0,-2.0,-997.0,0,0,0,0.0,0.0,0.0
1762170527.2313113,-7.0,0.0,-1002.0,0,0,0,0.0,0.0,0.0
1762170527.3320138,-8.0,-2.0,-1000.0,0,0,0,0.0,0.0,0.0
1762170527.4326003,-7.0,-1.0,-1001.0,0,0,0,0.0,0.0,0.0
1762170527.5330236,-6.0,-1.0,-997.0,0,0,0,0.0,0.0,0.0
1762170527.6333637,-7.0,0.0,-998.0,0,0,0,0.0,0.0,0.0
1762170527.7336614,-8.0,-1.0,-999.0,0,0,0,0.0,0.0,0.0
1762170527.8338742,-6.0,-1.0,-998.0,0,0,0,0.0,0.0,0.0
1762170527.9346762,-7.0,-3.0,-998.0,0,0,0,0.0,0.0,0.0
1762170528.035314,-7.0,-1.0,-1000.0,0,0,0,0.0,0.0,0.0
1762170528.1359441,-6.0,-1.0,-1003.0,0,0,0,0.0,0.0,0.0
1762170528.2362788,-7.0,-1.0,-1001.0,0,0,0,0.0,0.0,0.0
1762170528.336714,-6.0,0.0,-1001.0,0,0,0,0.0,0.0,0.0
1762170528.437073,-7.0,-2.0,-999.0,0,0,0,0.0,0.0,0.0
1762170528.537701,-7.0,-1.0,-1000.0,0,0,0,0.0,0.0,0.0
1762170528.6380541,-7.0,0.0,-1001.0,0,0,0,0.0,0.0,0.0
1762170528.7387831,-7.0,-2.0,-999.0,0,0,0,0.0,0.0,0.0
1762170528.8396175,-6.0,-1.0,-1002.0,0,0,0,0.0,0.0,0.0
1762170528.9400134,-8.0,-1.0,-999.0,0,0,0,0.0,0.0,0.0
1762170529.0405307,-7.0,0.0,-1004.0,0,0,0,0.0,0.0,0.0
1762170529.1412501,-14.0,0.0,-998.0,0,0,0,0.0,0.0,0.0
1762170529.2416804,-6.0,-4.0,-999.0,0,0,0,0.0,0.0,0.0
1762170529.342152,-1.0,5.0,-995.0,0,0,0,0.0,0.0,0.0
1762170529.4428792,-30.0,-2.0,-1022.0,0,0,0,0.0,0.0,0.0
1762170529.543229,-36.0,24.0,-1003.0,0,0,0,0.0,0.0,0.0
1762170529.643495,-37.0,15.0,-1076.0,0,0,0,0.0,0.0,0.0
1762170529.7437673,-31.0,14.0,-1109.0,0,0,0,0.0,0.0,0.0
1762170529.8442066,-22.0,0.0,-1268.0,0,0,1,0.0,0.0,0.10043931007385254
1762170529.9446542,-16.0,24.0,-1132.0,0,0,3,0.0,0.0,0.4017822742462158
1762170530.0450108,38.0,18.0,-1011.0,0,0,4,0.0,0.0,0.803208589553833
1762170530.1455173,6.0,13.0,-1025.0,0,0,5,0.0,0.0,1.305741310119629
1762170530.2460964,16.0,-5.0,-987.0,0,0,5,0.0,0.0,1.8086364269256592
1762170530.346519,35.0,7.0,-963.0,0,0,5,0.0,0.0,2.3107495307922363
1762170530.4468045,5.0,0.0,-961.0,0,0,5,0.0,0.0,2.8121771812438965
1762170530.5475085,9.0,6.0,-982.0,0,0,5,0.0,0.0,3.315696954727173
1762170530.6482365,15.0,9.0,-1002.0,0,0,5,0.0,0.0,3.8193371295928955
1762170530.7484887,0.0,-1.0,-956.0,0,0,5,0.0,0.0,4.320597887039185
1762170530.848686,8.0,-1.0,-965.0,0,0,4,0.0,0.0,4.721387147903442
1762170530.9493077,5.0,-4.0,-967.0,0,0,4,0.0,0.0,5.123873949050903
1762170531.0502744,13.0,6.0,-917.0,0,0,4,0.0,0.0,5.527740716934204
1762170531.1506627,1.0,-17.0,-934.0,0,0,3,0.0,0.0,5.8289055824279785
1762170531.251183,7.0,-4.0,-936.0,0,0,2,0.0,0.0,6.029946327209473
1762170531.3515213,13.0,-4.0,-975.0,0,0,2,0.0,0.0,6.2306227684021
1762170531.451834,2.0,-1.0,-933.0,0,0,2,0.0,0.0,6.431248188018799
1762170531.5526497,6.0,0.0,-955.0,0,0,1,0.0,0.0,6.532063961029053
1762170531.6531184,10.0,-10.0,-932.0,0,0,1,0.0,0.0,6.632532596588135
1762170531.7533364,7.0,-13.0,-982.0,0,0,0,0.0,0.0,6.632532596588135
1762170531.8539152,0.0,0.0,-973.0,0,0,0,0.0,0.0,6.632532596588135
1762170531.9541082,7.0,8.0,-957.0,0,0,0,0.0,0.0,6.632532596588135
1762170532.054455,0.0,3.0,-950.0,0,0,0,0.0,0.0,6.632532596588135
1762170532.1550322,8.0,0.0,-990.0,0,0,0,0.0,0.0,6.632532596588135
1762170532.2557838,11.0,-4.0,-998.0,0,0,0,0.0,0.0,6.632532596588135
1762170532.3560317,1.0,-5.0,-1004.0,0,0,0,0.0,0.0,6.632532596588135
1762170532.4562907,-4.0,-8.0,-1043.0,0,0,0,0.0,0.0,6.632532596588135
1762170532.5571096,8.0,6.0,-1018.0,0,0,0,0.0,0.0,6.632532596588135
1762170532.6573906,8.0,8.0,-1008.0,0,0,0,0.0,0.0,6.632532596588135
1762170532.7583296,-19.0,6.0,-1057.0,0,0,0,0.0,0.0,6.632532596588135
1762170532.8586478,9.0,14.0,-985.0,0,0,0,0.0,0.0,6.632532596588135
1762170532.9590206,24.0,8.0,-953.0,0,0,1,0.0,0.0,6.732905387878418
1762170533.0596812,3.0,-8.0,-980.0,0,0,0,0.0,0.0,6.732905387878418
1762170533.1600542,-7.0,-7.0,-1028.0,0,0,0,0.0,0.0,6.732905387878418
1762170533.2604423,11.0,0.0,-993.0,0,0,0,0.0,0.0,6.732905387878418
1762170533.3610885,18.0,-2.0,-1006.0,0,0,0,0.0,0.0,6.732905387878418
1762170533.4614656,10.0,3.0,-1010.0,0,0,0,0.0,0.0,6.732905387878418
1762170533.561752,-2.0,-4.0,-987.0,0,0,0,0.0,0.0,6.732905387878418
1762170533.662318,3.0,6.0,-996.0,0,0,0,0.0,0.0,6.732905387878418
1762170533.762464,24.0,9.0,-1017.0,0,0,0,0.0,0.0,6.732905387878418
1762170533.8631823,-5.0,0.0,-986.0,0,0,0,0.0,0.0,6.732905387878418
1762170533.9638746,18.0,-13.0,-1004.0,0,0,0,0.0,0.0,6.732905387878418
1762170534.0646338,-3.0,-1.0,-963.0,0,0,0,0.0,0.0,6.732905387878418
1762170534.1647897,10.0,-4.0,-1003.0,0,0,0,0.0,0.0,6.732905387878418
1762170534.2652059,18.0,-14.0,-1049.0,0,0,0,0.0,0.0,6.732905387878418
1762170534.3655577,0.0,-18.0,-1060.0,0,0,0,0.0,0.0,6.732905387878418
1762170534.466285,7.0,-1.0,-977.0,0,0,0,0.0,0.0,6.732905387878418
1762170534.5667639,25.0,-9.0,-980.0,0,0,0,0.0,0.0,6.732905387878418
1762170534.6675923,7.0,-13.0,-972.0,0,0,0,0.0,0.0,6.732905387878418
1762170534.7677715,23.0,13.0,-990.0,0,0,0,0.0,0.0,6.732905387878418
1762170534.867916,10.0,9.0,-961.0,0,0,0,0.0,0.0,6.732905387878418
1762170534.9685693,25.0,-5.0,-1013.0,0,0,0,0.0,0.0,6.732905387878418
1762170535.0689118,36.0,-5.0,-993.0,0,0,0,0.0,0.0,6.732905387878418
1762170535.170028,43.0,1.0,-957.0,0,0,0,0.0,0.0,6.732905387878418
1762170535.2703395,4.0,-8.0,-1004.0,0,0,0,0.0,0.0,6.732905387878418
1762170535.371008,2.0,12.0,-1013.0,0,0,0,0.0,0.0,6.732905387878418
1762170535.4711506,27.0,-17.0,-1006.0,0,0,0,0.0,0.0,6.732905387878418
1762170535.5713236,3.0,-13.0,-1025.0,0,0,0,0.0,0.0,6.732905387878418
1762170535.6721108,27.0,-25.0,-932.0,0,0,0,0.0,0.0,6.732905387878418
1762170535.7728891,4.0,7.0,-996.0,0,0,0,0.0,0.0,6.732905387878418
1762170535.8734217,5.0,0.0,-952.0,0,0,0,0.0,0.0,6.732905387878418
1762170535.9738944,31.0,5.0,-967.0,0,0,0,0.0,0.0,6.732905387878418
1762170536.0744617,8.0,-19.0,-1002.0,0,0,0,0.0,0.0,6.732905387878418
1762170536.174761,-11.0,-10.0,-1074.0,0,0,0,0.0,0.0,6.732905387878418
1762170536.2755544,12.0,0.0,-1002.0,0,0,0,0.0,0.0,6.732905387878418
1762170536.3758986,-1.0,-18.0,-1031.0,0,0,0,0.0,0.0,6.732905387878418
1762170536.476128,16.0,9.0,-992.0,0,0,0,0.0,0.0,6.732905387878418
1762170536.5764327,27.0,3.0,-976.0,0,0,0,0.0,0.0,6.732905387878418
1762170536.6775348,-10.0,-17.0,-1015.0,0,0,0,0.0,0.0,6.732905387878418
1762170536.777686,-19.0,1.0,-1032.0,0,0,0,0.0,0.0,6.732905387878418
1762170536.8785193,-17.0,0.0,-1006.0,0,0,0,0.0,0.0,6.732905387878418
1762170536.9792306,-3.0,10.0,-1012.0,1,0,0,0.10071134567260742,0.0,6.732905387878418
1762170537.0797956,19.0,-4.0,-986.0,1,0,0,0.20127630233764648,0.0,6.732905387878418
1762170537.1800795,-5.0,-13.0,-993.0,1,0,0,0.3015601634979248,0.0,6.732905387878418
1762170537.2805586,3.0,-23.0,-988.0,0,0,0,0.3015601634979248,0.0,6.732905387878418
1762170537.38138,-21.0,-12.0,-1019.0,0,0,0,0.3015601634979248,0.0,6.732905387878418
1762170537.4820204,1.0,-4.0,-1010.0,0,0,0,0.3015601634979248,0.0,6.732905387878418
1762170537.5824814,1.0,-10.0,-980.0,0,0,0,0.3015601634979248,0.0,6.732905387878418
1762170537.6831372,0.0,0.0,-1015.0,0,0,0,0.3015601634979248,0.0,6.732905387878418
1762170537.7834756,10.0,-6.0,-999.0,0,0,0,0.3015601634979248,0.0,6.732905387878418
1762170537.8839269,4.0,-4.0,-1009.0,0,0,0,0.3015601634979248,0.0,6.732905387878418
1762170537.9845586,-5.0,1.0,-957.0,0,0,0,0.3015601634979248,0.0,6.732905387878418
1762170538.084989,15.0,7.0,-978.0,0,0,0,0.3015601634979248,0.0,6.732905387878418
1762170538.1851497,5.0,0.0,-999.0,0,0,0,0.3015601634979248,0.0,6.732905387878418
1762170538.2853334,1.0,6.0,-1004.0,0,0,0,0.3015601634979248,0.0,6.732905387878418
1762170538.3855715,-3.0,-4.0,-991.0,0,0,0,0.3015601634979248,0.0,6.732905387878418
1762170538.4860084,13.0,-9.0,-993.0,0,0,0,0.3015601634979248,0.0,6.732905387878418
1762170538.5864704,19.0,4.0,-1005.0,0,0,0,0.3015601634979248,0.0,6.732905387878418
1762170538.686993,14.0,5.0,-991.0,0,0,0,0.3015601634979248,0.0,6.732905387878418
1762170538.7874541,-1.0,-25.0,-1005.0,0,0,0,0.3015601634979248,0.0,6.732905387878418
1762170538.8881068,9.0,-6.0,-1025.0,0,0,0,0.3015601634979248,0.0,6.732905387878418
1762170538.988464,10.0,-5.0,-976.0,1,0,0,0.4019174575805664,0.0,6.732905387878418
1762170539.0889478,19.0,0.0,-998.0,0,0,0,0.4019174575805664,0.0,6.732905387878418
1762170539.1898494,-5.0,-10.0,-1004.0,0,0,0,0.4019174575805664,0.0,6.732905387878418
1762170539.2905405,-11.0,-5.0,-1056.0,0,0,0,0.4019174575805664,0.0,6.732905387878418
1762170539.3908358,15.0,-13.0,-1014.0,0,0,0,0.4019174575805664,0.0,6.732905387878418
1762170539.491327,22.0,3.0,-1019.0,0,0,0,0.4019174575805664,0.0,6.732905387878418
1762170539.5920243,0.0,0.0,-975.0,0,0,0,0.4019174575805664,0.0,6.732905387878418
1762170539.6925015,8.0,2.0,-960.0,0,0,0,0.4019174575805664,0.0,6.732905387878418
1762170539.7928488,19.0,4.0,-983.0,1,0,0,0.5022647380828857,0.0,6.732905387878418
1762170539.8932755,-10.0,0.0,-987.0,1,0,0,0.6026914119720459,0.0,6.732905387878418
1762170539.9937801,-12.0,0.0,-1024.0,1,0,0,0.7031960487365723,0.0,6.732905387878418
1762170540.09434,22.0,30.0,-932.0,0,0,0,0.7031960487365723,0.0,6.732905387878418
1762170540.1951098,-28.0,3.0,-1029.0,0,0,0,0.7031960487365723,0.0,6.732905387878418
1762170540.2955317,7.0,8.0,-973.0,0,0,0,0.7031960487365723,0.0,6.732905387878418
1762170540.3959558,4.0,-4.0,-1035.0,0,0,0,0.7031960487365723,0.0,6.732905387878418
1762170540.496383,0.0,-7.0,-973.0,0,0,0,0.7031960487365723,0.0,6.732905387878418
1762170540.5968242,-8.0,-12.0,-993.0,-1,0,0,0.6027548313140869,0.0,6.732905387878418
1762170540.697275,-8.0,-12.0,-993.0,-1,0,0,0.5023040771484375,0.0,6.732905387878418
1762170540.7978735,-23.0,3.0,-986.0,-1,0,0,0.4017055034637451,0.0,6.732905387878418
1762170540.8982704,-17.0,18.0,-1008.0,-1,0,0,0.30130863189697266,0.0,6.732905387878418
1762170540.9986994,-22.0,6.0,-1026.0,-1,0,0,0.20087957382202148,0.0,6.732905387878418
1762170541.0991282,-40.0,14.0,-983.0,-1,0,0,0.10045075416564941,0.0,6.732905387878418
1762170541.1997209,1.0,6.0,-1022.0,-1,0,0,-0.0001418590545654297,0.0,6.732905387878418
1762170541.2999156,-21.0,-7.0,-1029.0,-1,0,0,-0.10033655166625977,0.0,6.732905387878418
1762170541.4002728,-12.0,3.0,-979.0,-1,0,0,-0.20069384574890137,0.0,6.732905387878418
1762170541.5010836,-18.0,-9.0,-1024.0,-1,0,0,-0.30150461196899414,0.0,6.732905387878418
1762170541.601834,-11.0,-2.0,-1047.0,-1,0,0,-0.4022550582885742,0.0,6.732905387878418
1762170541.7023604,-31.0,-16.0,-994.0,-1,0,0,-0.5027813911437988,0.0,6.732905387878418
1762170541.803042,-16.0,26.0,-987.0,-1,0,0,-0.6034629344940186,0.0,6.732905387878418
1762170541.9033978,22.0,13.0,-1034.0,-1,0,0,-0.7038187980651855,0.0,6.732905387878418
1762170542.0041814,-16.0,-20.0,-1010.0,-1,0,0,-0.8046023845672607,0.0,6.732905387878418
1762170542.1045442,-32.0,-1.0,-941.0,-1,0,0,-0.9049651622772217,0.0,6.732905387878418
1762170542.2051938,-13.0,3.0,-982.0,-1,0,0,-1.0056147575378418,0.0,6.732905387878418
1762170542.3055782,-35.0,-2.0,-952.0,-1,0,0,-1.105999231338501,0.0,6.732905387878418
1762170542.4057276,-17.0,-1.0,-987.0,-1,0,0,-1.206148624420166,0.0,6.732905387878418
1762170542.505997,-16.0,-36.0,-945.0,-1,0,0,-1.3064179420471191,0.0,6.732905387878418
1762170542.6063862,-28.0,-26.0,-1010.0,-1,-1,0,-1.4068071842193604,-0.10038924217224121,6.732905387878418
1762170542.7072756,-27.0,11.0,-947.0,-1,-1,0,-1.5076966285705566,-0.2012786865234375,6.732905387878418
1762170542.8080995,0.0,-24.0,-1003.0,-1,-1,0,-1.6085205078125,-0.30210256576538086,6.732905387878418
1762170542.9088218,-23.0,-18.0,-991.0,-1,-1,0,-1.709242820739746,-0.40282487869262695,6.732905387878418
1762170543.0092776,-5.0,-21.0,-976.0,-1,-1,0,-1.8096985816955566,-0.5032806396484375,6.732905387878418
1762170543.1094782,2.0,-7.0,-1006.0,-1,-1,0,-1.9098992347717285,-0.6034812927246094,6.732905387878418
1762170543.2097414,-8.0,-5.0,-975.0,0,-1,0,-1.9098992347717285,-0.7037444114685059,6.732905387878418
1762170543.310151,6.0,-2.0,-1009.0,0,-1,0,-1.9098992347717285,-0.8041541576385498,6.732905387878418
1762170543.4110215,-11.0,7.0,-1057.0,0,-1,0,-1.9098992347717285,-0.905024528503418,6.732905387878418
1762170543.5113254,-9.0,0.0,-1039.0,0,-1,0,-1.9098992347717285,-1.0053284168243408,6.732905387878418
1762170543.611936,-11.0,4.0,-1025.0,0,-1,0,-1.9098992347717285,-1.1059391498565674,6.732905387878418
1762170543.7124498,-9.0,8.0,-1008.0,0,-1,0,-1.9098992347717285,-1.2064528465270996,6.732905387878418
1762170543.8128526,-7.0,-23.0,-960.0,0,-1,0,-1.9098992347717285,-1.3068556785583496,6.732905387878418
1762170543.913122,-2.0,7.0,-975.0,0,-1,0,-1.9098992347717285,-1.4071249961853027,6.732905387878418
1762170544.0137205,-10.0,5.0,-964.0,0,-1,0,-1.9098992347717285,-1.5077235698699951,6.732905387878418
1762170544.1143143,0.0,-2.0,-966.0,0,-1,0,-1.9098992347717285,-1.6083173751831055,6.732905387878418
1762170544.2146063,0.0,-2.0,-966.0,0,-1,0,-1.9098992347717285,-1.7086093425750732,6.732905387878418
1762170544.3148952,-10.0,-5.0,-955.0,0,-1,0,-1.9098992347717285,-1.8088982105255127,6.732905387878418
1762170544.4151618,-9.0,0.0,-968.0,0,-1,0,-1.9098992347717285,-1.9091649055480957,6.732905387878418
1762170544.5158691,5.0,0.0,-963.0,0,-1,-1,-1.9098992347717285,-2.0098721981048584,6.632198095321655
1762170544.6165118,-3.0,-9.0,-1027.0,0,-1,-1,-1.9098992347717285,-2.1105148792266846,6.531555414199829
1762170544.71727,8.0,2.0,-991.0,0,-1,-1,-1.9098992347717285,-2.211272954940796,6.430797338485718
1762170544.8176146,16.0,-7.0,-1041.0,0,-1,-1,-1.9098992347717285,-2.311617612838745,6.3304526805877686
1762170544.918006,-1.0,-12.0,-1034.0,0,-1,-1,-1.9098992347717285,-2.4120090007781982,6.230061292648315
1762170545.0187967,-17.0,-20.0,-1044.0,0,-1,0,-1.9098992347717285,-2.5127997398376465,6.230061292648315
1762170545.1195955,-18.0,-19.0,-1041.0,0,-1,0,-1.9098992347717285,-2.613598585128784,6.230061292648315
1762170545.2201638,-9.0,-21.0,-1087.0,0,-1,0,-1.9098992347717285,-2.7141668796539307,6.230061292648315
1762170545.3203292,-6.0,-28.0,-1036.0,0,-1,0,-1.9098992347717285,-2.8143322467803955,6.230061292648315
1762170545.4207337,4.0,-24.0,-1068.0,0,-1,0,-1.9098992347717285,-2.914736747741699,6.230061292648315
1762170545.521122,-3.0,-5.0,-1026.0,0,-1,1,-1.9098992347717285,-3.015125036239624,6.33044958114624
1762170545.6217306,-3.0,-16.0,-980.0,0,-1,1,-1.9098992347717285,-3.1157336235046387,6.431058168411255
1762170545.7222228,-9.0,-2.0,-988.0,0,-1,1,-1.9098992347717285,-3.2162258625030518,6.531550407409668
1762170545.8227358,0.0,-21.0,-952.0,0,0,0,-1.9098992347717285,-3.2162258625030518,6.531550407409668
1762170545.923286,-4.0,-2.0,-945.0,0,0,0,-1.9098992347717285,-3.2162258625030518,6.531550407409668
1762170546.023667,17.0,-19.0,-1007.0,0,0,0,-1.9098992347717285,-3.2162258625030518,6.531550407409668
1762170546.1239274,-4.0,-17.0,-1007.0,0,0,0,-1.9098992347717285,-3.2162258625030518,6.531550407409668
1762170546.2242332,5.0,-17.0,-972.0,0,0,0,-1.9098992347717285,-3.2162258625030518,6.531550407409668
1762170546.324727,-6.0,-1.0,-1022.0,0,0,-1,-1.9098992347717285,-3.2162258625030518,6.431056499481201
1762170546.4255075,4.0,0.0,-1023.0,0,0,-1,-1.9098992347717285,-3.2162258625030518,6.330276012420654
1762170546.5256577,-8.0,-6.0,-1055.0,0,0,0,-1.9098992347717285,-3.2162258625030518,6.330276012420654
1762170546.6260612,2.0,1.0,-1029.0,0,0,0,-1.9098992347717285,-3.2162258625030518,6.330276012420654
1762170546.7262883,12.0,0.0,-1044.0,0,0,0,-1.9098992347717285,-3.2162258625030518,6.330276012420654
1762170546.8265314,-1.0,-3.0,-1037.0,0,0,0,-1.9098992347717285,-3.2162258625030518,6.330276012420654
1762170546.9269109,-11.0,-30.0,-1038.0,0,0,0,-1.9098992347717285,-3.2162258625030518,6.330276012420654
1762170547.0278316,-7.0,-27.0,-1022.0,0,0,0,-1.9098992347717285,-3.2162258625030518,6.330276012420654
1762170547.1280844,-24.0,-15.0,-1045.0,0,0,1,-1.9098992347717285,-3.2162258625030518,6.430528879165649
1762170547.2284098,-24.0,-15.0,-1045.0,0,0,1,-1.9098992347717285,-3.2162258625030518,6.530854225158691
1762170547.3290343,-5.0,-22.0,-1003.0,0,0,0,-1.9098992347717285,-3.2162258625030518,6.530854225158691
1762170547.4294462,16.0,5.0,-986.0,0,0,0,-1.9098992347717285,-3.2162258625030518,6.530854225158691
1762170547.5296764,16.0,5.0,-986.0,0,0,0,-1.9098992347717285,-3.2162258625030518,6.530854225158691
1762170547.6305017,-16.0,6.0,-990.0,0,0,0,-1.9098992347717285,-3.2162258625030518,6.530854225158691
1762170547.7310488,1.0,-12.0,-945.0,0,0,0,-1.9098992347717285,-3.2162258625030518,6.530854225158691
1762170547.8312862,0.0,-19.0,-989.0,0,0,0,-1.9098992347717285,-3.2162258625030518,6.530854225158691
1762170547.9315593,11.0,-15.0,-975.0,0,0,0,-1.9098992347717285,-3.2162258625030518,6.530854225158691
1762170548.0318694,4.0,0.0,-969.0,0,0,0,-1.9098992347717285,-3.2162258625030518,6.530854225158691
1762170548.1321473,-7.0,-7.0,-999.0,0,0,0,-1.9098992347717285,-3.2162258625030518,6.530854225158691
1762170548.2324233,-22.0,-2.0,-1011.0,0,0,0,-1.9098992347717285,-3.2162258625030518,6.530854225158691
1762170548.3333154,-25.0,-1.0,-989.0,0,0,0,-1.9098992347717285,-3.2162258625030518,6.530854225158691
1762170548.4336224,-4.0,-3.0,-1005.0,0,0,0,-1.9098992347717285,-3.2162258625030518,6.530854225158691
1762170548.533875,0.0,16.0,-944.0,0,0,0,-1.9098992347717285,-3.2162258625030518,6.530854225158691
1762170548.6344948,5.0,-9.0,-996.0,0,0,0,-1.9098992347717285,-3.2162258625030518,6.530854225158691
1762170548.7349758,13.0,-19.0,-1032.0,0,0,0,-1.9098992347717285,-3.2162258625030518,6.530854225158691
1762170548.8358424,4.0,-4.0,-1049.0,0,0,0,-1.9098992347717285,-3.2162258625030518,6.530854225158691
1762170548.936134,8.0,2.0,-970.0,0,0,0,-1.9098992347717285,-3.2162258625030518,6.530854225158691
1762170549.0363574,8.0,2.0,-970.0,0,0,0,-1.9098992347717285,-3.2162258625030518,6.530854225158691
1762170549.1366165,4.0,2.0,-952.0,0,0,0,-1.9098992347717285,-3.2162258625030518,6.530854225158691
1762170549.236917,22.0,15.0,-1005.0,0,0,0,-1.9098992347717285,-3.2162258625030518,6.530854225158691
1762170549.3373063,1.0,-7.0,-984.0,0,0,0,-1.9098992347717285,-3.2162258625030518,6.530854225158691
1762170549.4380102,19.0,5.0,-989.0,0,0,0,-1.9098992347717285,-3.2162258625030518,6.530854225158691
1762170549.5388818,54.0,13.0,-992.0,0,0,0,-1.9098992347717285,-3.2162258625030518,6.530854225158691
1762170549.639093,-15.0,-7.0,-1011.0,0,0,0,-1.9098992347717285,-3.2162258625030518,6.530854225158691
1762170549.7394536,24.0,18.0,-996.0,0,0,0,-1.9098992347717285,-3.2162258625030518,6.530854225158691
1762170549.8398197,27.0,8.0,-983.0,0,0,0,-1.9098992347717285,-3.2162258625030518,6.530854225158691
1762170549.9404905,11.0,-23.0,-989.0,0,0,0,-1.9098992347717285,-3.2162258625030518,6.530854225158691
1762170550.0407662,5.0,-1.0,-980.0,0,0,0,-1.9098992347717285,-3.2162258625030518,6.530854225158691
1762170550.1410723,28.0,-3.0,-982.0,0,0,0,-1.9098992347717285,-3.2162258625030518,6.530854225158691
1762170550.2413654,14.0,-22.0,-979.0,0,0,0,-1.9098992347717285,-3.2162258625030518,6.530854225158691
1762170550.3417788,6.0,-9.0,-1025.0,0,0,0,-1.9098992347717285,-3.2162258625030518,6.530854225158691
1762170550.4424393,26.0,-8.0,-999.0,0,0,0,-1.9098992347717285,-3.2162258625030518,6.530854225158691
1762170550.5427396,41.0,-16.0,-994.0,0,0,0,-1.9098992347717285,-3.2162258625030518,6.530854225158691
1762170550.6429603,-18.0,-2.0,-969.0,0,0,0,-1.9098992347717285,-3.2162258625030518,6.530854225158691
1762170550.7432284,-18.0,-2.0,-969.0,0,0,0,-1.9098992347717285,-3.2162258625030518,6.530854225158691
1762170550.843638,2.0,-8.0,-1004.0,0,0,0,-1.9098992347717285,-3.2162258625030518,6.530854225158691
1762170550.9439518,29.0,-6.0,-969.0,0,0,0,-1.9098992347717285,-3.2162258625030518,6.530854225158691
1762170551.044225,3.0,13.0,-1018.0,0,0,0,-1.9098992347717285,-3.2162258625030518,6.530854225158691
1762170551.144656,23.0,-10.0,-969.0,0,0,0,-1.9098992347717285,-3.2162258625030518,6.530854225158691
1762170551.2448525,6.0,8.0,-982.0,0,0,0,-1.9098992347717285,-3.2162258625030518,6.530854225158691
1762170551.3452456,3.0,9.0,-989.0,0,0,0,-1.9098992347717285,-3.2162258625030518,6.530854225158691
1762170551.445458,5.0,13.0,-982.0,0,0,0,-1.9098992347717285,-3.2162258625030518,6.530854225158691
1762170551.5458367,6.0,14.0,-1008.0,0,0,0,-1.9098992347717285,-3.2162258625030518,6.530854225158691
1762170551.646101,24.0,6.0,-1050.0,0,0,0,-1.9098992347717285,-3.2162258625030518,6.530854225158691
1762170551.7465491,24.0,-7.0,-1042.0,0,0,0,-1.9098992347717285,-3.2162258625030518,6.530854225158691
1762170551.8471057,7.0,10.0,-1009.0,0,0,0,-1.9098992347717285,-3.2162258625030518,6.530854225158691
1762170551.947457,22.0,7.0,-1008.0,0,0,1,-1.9098992347717285,-3.2162258625030518,6.6312055587768555
1762170552.0481982,38.0,-19.0,-948.0,0,0,1,-1.9098992347717285,-3.2162258625030518,6.731946706771851
1762170552.1486902,10.0,-13.0,-949.0,0,0,0,-1.9098992347717285,-3.2162258625030518,6.731946706771851
1762170552.2492077,42.0,3.0,-989.0,0,0,0,-1.9098992347717285,-3.2162258625030518,6.731946706771851
1762170552.3496022,20.0,5.0,-952.0,0,0,0,-1.9098992347717285,-3.2162258625030518,6.731946706771851
1762170552.450666,13.0,3.0,-964.0,0,0,0,-1.9098992347717285,-3.2162258625030518,6.731946706771851
1762170552.5513933,16.0,-7.0,-959.0,0,0,0,-1.9098992347717285,-3.2162258625030518,6.731946706771851
1762170552.6518147,26.0,-13.0,-969.0,0,0,-1,-1.9098992347717285,-3.2162258625030518,6.631525278091431
1762170552.752481,1.0,-9.0,-981.0,0,0,-1,-1.9098992347717285,-3.2162258625030518,6.530858993530273
1762170552.8527691,38.0,-16.0,-1020.0,0,0,-1,-1.9098992347717285,-3.2162258625030518,6.430570840835571
1762170552.9531283,46.0,11.0,-1019.0,0,0,0,-1.9098992347717285,-3.2162258625030518,6.430570840835571
1762170553.0534337,22.0,-19.0,-1035.0,0,0,0,-1.9098992347717285,-3.2162258625030518,6.430570840835571
1762170553.153713,12.0,-32.0,-1040.0,0,0,0,-1.9098992347717285,-3.2162258625030518,6.430570840835571
1762170553.2540526,10.0,-2.0,-1004.0,0,0,0,-1.9098992347717285,-3.2162258625030518,6.430570840835571
1762170553.354457,47.0,25.0,-995.0,0,0,0,-1.9098992347717285,-3.2162258625030518,6.430570840835571
1762170553.455053,39.0,-9.0,-1088.0,0,0,1,-1.9098992347717285,-3.2162258625030518,6.531167030334473
1762170553.5557914,40.0,4.0,-1039.0,0,0,1,-1.9098992347717285,-3.2162258625030518,6.6319053173065186
1762170553.656086,12.0,0.0,-988.0,0,0,1,-1.9098992347717285,-3.2162258625030518,6.7321999073028564
1762170553.7565036,29.0,28.0,-995.0,0,0,1,-1.9098992347717285,-3.2162258625030518,6.832617521286011
1762170553.8569298,30.0,14.0,-933.0,0,0,1,-1.9098992347717285,-3.2162258625030518,6.933043718338013
1762170553.957757,32.0,6.0,-924.0,0,0,0,-1.9098992347717285,-3.2162258625030518,6.933043718338013
1762170554.0579855,32.0,6.0,-924.0,0,0,0,-1.9098992347717285,-3.2162258625030518,6.933043718338013
1762170554.1587446,7.0,11.0,-954.0,0,0,0,-1.9098992347717285,-3.2162258625030518,6.933043718338013
1762170554.2592325,19.0,-13.0,-959.0,0,0,0,-1.9098992347717285,-3.2162258625030518,6.933043718338013
1762170554.3598697,20.0,5.0,-959.0,0,0,0,-1.9098992347717285,-3.2162258625030518,6.933043718338013
1762170554.4605143,7.0,-1.0,-987.0,0,0,-1,-1.9098992347717285,-3.2162258625030518,6.832399129867554
1762170554.56101,0.0,12.0,-1023.0,0,0,-1,-1.9098992347717285,-3.2162258625030518,6.731903553009033
1762170554.6611686,47.0,-4.0,-992.0,0,0,-1,-1.9098992347717285,-3.2162258625030518,6.631744861602783
1762170554.761557,31.0,21.0,-1016.0,0,0,-1,-1.9098992347717285,-3.2162258625030518,6.531356334686279
1762170554.8622482,4.0,14.0,-1014.0,0,0,0,-1.9098992347717285,-3.2162258625030518,6.531356334686279
1762170554.9627411,19.0,19.0,-977.0,0,0,0,-1.9098992347717285,-3.2162258625030518,6.531356334686279
1762170555.063452,37.0,11.0,-1085.0,0,0,0,-1.9098992347717285,-3.2162258625030518,6.531356334686279
1762170555.1637938,14.0,7.0,-1030.0,0,0,0,-1.9098992347717285,-3.2162258625030518,6.531356334686279
1762170555.264257,17.0,7.0,-991.0,0,0,0,-1.9098992347717285,-3.2162258625030518,6.531356334686279
1762170555.3644614,15.0,0.0,-1004.0,0,0,0,-1.9098992347717285,-3.2162258625030518,6.531356334686279
1762170555.4653182,22.0,7.0,-1002.0,0,0,0,-1.9098992347717285,-3.2162258625030518,6.531356334686279
1762170555.5655768,3.0,-10.0,-998.0,0,0,0,-1.9098992347717285,-3.2162258625030518,6.531356334686279
1762170555.66623,16.0,3.0,-1000.0,0,0,0,-1.9098992347717285,-3.2162258625030518,6.531356334686279
1762170555.7669644,-15.0,16.0,-976.0,0,0,0,-1.9098992347717285,-3.2162258625030518,6.531356334686279
1762170555.8673706,10.0,13.0,-997.0,0,0,0,-1.9098992347717285,-3.2162258625030518,6.531356334686279
1762170555.9678986,-2.0,1.0,-1001.0,0,0,0,-1.9098992347717285,-3.2162258625030518,6.531356334686279
1762170556.068273,11.0,0.0,-1014.0,0,0,0,-1.9098992347717285,-3.2162258625030518,6.531356334686279
1762170556.1688237,0.0,0.0,-1000.0,0,0,0,-1.9098992347717285,-3.2162258625030518,6.531356334686279
1762170556.269419,21.0,-3.0,-975.0,0,0,0,-1.9098992347717285,-3.2162258625030518,6.531356334686279
1762170556.369585,-6.0,1.0,-1003.0,0,0,0,-1.9098992347717285,-3.2162258625030518,6.531356334686279
1762170556.4703126,-4.0,0.0,-984.0,0,0,0,-1.9098992347717285,-3.2162258625030518,6.531356334686279
1762170556.5705879,2.0,-28.0,-976.0,0,0,0,-1.9098992347717285,-3.2162258625030518,6.531356334686279
1762170556.6709278,22.0,-17.0,-979.0,0,0,0,-1.9098992347717285,-3.2162258625030518,6.531356334686279
1762170556.7715468,10.0,-12.0,-965.0,0,0,0,-1.9098992347717285,-3.2162258625030518,6.531356334686279
1762170556.872292,14.0,-29.0,-966.0,0,0,0,-1.9098992347717285,-3.2162258625030518,6.531356334686279
1762170556.9728918,13.0,18.0,-923.0,0,0,0,-1.9098992347717285,-3.2162258625030518,6.531356334686279
1762170557.0734127,8.0,3.0,-986.0,0,0,0,-1.9098992347717285,-3.2162258625030518,6.531356334686279
1762170557.1735811,30.0,1.0,-1023.0,0,0,0,-1.9098992347717285,-3.2162258625030518,6.531356334686279
1762170557.2742395,23.0,-2.0,-1001.0,0,0,0,-1.9098992347717285,-3.2162258625030518,6.531356334686279
1762170557.37446,23.0,-2.0,-1001.0,0,0,0,-1.9098992347717285,-3.2162258625030518,6.531356334686279
1762170557.4752057,17.0,-24.0,-1024.0,0,0,0,-1.9098992347717285,-3.2162258625030518,6.531356334686279
1762170557.5758507,28.0,-22.0,-1022.0,0,0,0,-1.9098992347717285,-3.2162258625030518,6.531356334686279
1762170557.676432,12.0,-18.0,-989.0,0,0,0,-1.9098992347717285,-3.2162258625030518,6.531356334686279
1762170557.7767,0.0,-16.0,-991.0,0,0,0,-1.9098992347717285,-3.2162258625030518,6.531356334686279
1762170557.8773794,3.0,-12.0,-984.0,0,0,0,-1.9098992347717285,-3.2162258625030518,6.531356334686279
1762170557.9781425,33.0,-21.0,-1020.0,0,0,0,-1.9098992347717285,-3.2162258625030518,6.531356334686279
1762170558.0785718,16.0,-7.0,-999.0,0,0,0,-1.9098992347717285,-3.2162258625030518,6.531356334686279
1762170558.1787522,14.0,-23.0,-1000.0,0,0,0,-1.9098992347717285,-3.2162258625030518,6.531356334686279
1762170558.2793012,44.0,-6.0,-967.0,0,0,0,-1.9098992347717285,-3.2162258625030518,6.531356334686279
1762170558.3796196,41.0,-28.0,-951.0,0,0,0,-1.9098992347717285,-3.2162258625030518,6.531356334686279
1762170558.479982,36.0,-21.0,-964.0,0,0,0,-1.9098992347717285,-3.2162258625030518,6.531356334686279
1762170558.580449,24.0,-13.0,-1004.0,0,0,0,-1.9098992347717285,-3.2162258625030518,6.531356334686279
1762170558.6808214,19.0,-28.0,-993.0,0,0,0,-1.9098992347717285,-3.2162258625030518,6.531356334686279
1762170558.7814574,6.0,-23.0,-1063.0,0,0,0,-1.9098992347717285,-3.2162258625030518,6.531356334686279
1762170558.8816369,20.0,-31.0,-1016.0,0,0,0,-1.9098992347717285,-3.2162258625030518,6.531356334686279
1762170558.9822514,26.0,3.0,-1001.0,0,0,0,-1.9098992347717285,-3.2162258625030518,6.531356334686279
1762170559.0824327,30.0,-13.0,-1027.0,0,0,0,-1.9098992347717285,-3.2162258625030518,6.531356334686279
1762170559.1833694,23.0,-23.0,-979.0,0,0,0,-1.9098992347717285,-3.2162258625030518,6.531356334686279
1762170559.2839754,26.0,-23.0,-984.0,0,0,0,-1.9098992347717285,-3.2162258625030518,6.531356334686279
1762170559.3841438,31.0,-20.0,-976.0,0,0,0,-1.9098992347717285,-3.2162258625030518,6.531356334686279
1762170559.4846709,16.0,-29.0,-1015.0,0,0,0,-1.9098992347717285,-3.2162258625030518,6.531356334686279
1762170559.585198,33.0,-24.0,-983.0,1,0,0,-1.8093721866607666,-3.2162258625030518,6.531356334686279
1762170559.6853395,49.0,-10.0,-977.0,1,0,0,-1.709230661392212,-3.2162258625030518,6.531356334686279
1762170559.7861679,28.0,-13.0,-976.0,0,0,0,-1.709230661392212,-3.2162258625030518,6.531356334686279
1762170559.8865047,27.0,-2.0,-963.0,0,0,0,-1.709230661392212,-3.2162258625030518,6.531356334686279
1762170559.9867554,0.0,-9.0,-1025.0,1,0,0,-1.6089799404144287,-3.2162258625030518,6.531356334686279
1762170560.0873575,28.0,-11.0,-984.0,1,0,0,-1.5083777904510498,-3.2162258625030518,6.531356334686279
1762170560.1876643,22.0,3.0,-984.0,1,0,0,-1.4080710411071777,-3.2162258625030518,6.531356334686279
1762170560.2882347,3.0,-5.0,-999.0,1,0,0,-1.3075006008148193,-3.2162258625030518,6.531356334686279
1762170560.388917,15.0,-3.0,-1037.0,1,0,0,-1.2068183422088623,-3.2162258625030518,6.531356334686279
1762170560.48968,30.0,-15.0,-1042.0,0,0,0,-1.2068183422088623,-3.2162258625030518,6.531356334686279
1762170560.5902855,21.0,-6.0,-1022.0,0,0,0,-1.2068183422088623,-3.2162258625030518,6.531356334686279
1762170560.6909866,17.0,-7.0,-992.0,0,0,0,-1.2068183422088623,-3.2162258625030518,6.531356334686279
1762170560.7918277,17.0,-7.0,-992.0,0,0,0,-1.2068183422088623,-3.2162258625030518,6.531356334686279
1762170560.8925967,13.0,0.0,-984.0,0,0,0,-1.2068183422088623,-3.2162258625030518,6.531356334686279
1762170560.9930003,0.0,-5.0,-1002.0,0,0,0,-1.2068183422088623,-3.2162258625030518,6.531356334686279
1762170561.0933657,2.0,14.0,-1014.0,0,0,0,-1.2068183422088623,-3.2162258625030518,6.531356334686279
1762170561.1935341,21.0,6.0,-1020.0,0,0,0,-1.2068183422088623,-3.2162258625030518,6.531356334686279
1762170561.2944279,7.0,-10.0,-1057.0,0,0,0,-1.2068183422088623,-3.2162258625030518,6.531356334686279
1762170561.3951418,18.0,-2.0,-1012.0,0,0,0,-1.2068183422088623,-3.2162258625030518,6.531356334686279
1762170561.495729,9.0,5.0,-1007.0,0,0,0,-1.2068183422088623,-3.2162258625030518,6.531356334686279
1762170561.5960493,9.0,10.0,-1001.0,0,0,0,-1.2068183422088623,-3.2162258625030518,6.531356334686279
1762170561.6962266,20.0,-32.0,-984.0,0,0,0,-1.2068183422088623,-3.2162258625030518,6.531356334686279
1762170561.7964633,27.0,-1.0,-947.0,0,0,0,-1.2068183422088623,-3.2162258625030518,6.531356334686279
1762170561.8966954,1.0,-21.0,-997.0,0,0,0,-1.2068183422088623,-3.2162258625030518,6.531356334686279
1762170561.997309,-9.0,-5.0,-1020.0,0,0,0,-1.2068183422088623,-3.2162258625030518,6.531356334686279
1762170562.097586,4.0,-5.0,-990.0,0,0,0,-1.2068183422088623,-3.2162258625030518,6.531356334686279
1762170562.1983712,13.0,-26.0,-1048.0,0,0,0,-1.2068183422088623,-3.2162258625030518,6.531356334686279
1762170562.2986782,37.0,3.0,-1007.0,0,0,0,-1.2068183422088623,-3.2162258625030518,6.531356334686279
1762170562.3992527,28.0,-15.0,-974.0,0,0,0,-1.2068183422088623,-3.2162258625030518,6.531356334686279
1762170562.4996595,0.0,-2.0,-1014.0,0,0,0,-1.2068183422088623,-3.2162258625030518,6.531356334686279
1762170562.600039,-3.0,-16.0,-1042.0,0,0,0,-1.2068183422088623,-3.2162258625030518,6.531356334686279
1762170562.7004406,10.0,-7.0,-985.0,0,0,0,-1.2068183422088623,-3.2162258625030518,6.531356334686279
1762170562.8008451,20.0,5.0,-999.0,0,0,0,-1.2068183422088623,-3.2162258625030518,6.531356334686279
1762170562.9015076,22.0,-15.0,-988.0,0,0,0,-1.2068183422088623,-3.2162258625030518,6.531356334686279
1762170563.0018394,13.0,14.0,-962.0,0,0,0,-1.2068183422088623,-3.2162258625030518,6.531356334686279
1762170563.1026793,7.0,-7.0,-1006.0,0,0,0,-1.2068183422088623,-3.2162258625030518,6.531356334686279
1762170563.2034235,37.0,-8.0,-1025.0,0,0,0,-1.2068183422088623,-3.2162258625030518,6.531356334686279
1762170563.3037996,15.0,-1.0,-1010.0,0,0,0,-1.2068183422088623,-3.2162258625030518,6.531356334686279
1762170563.4041698,31.0,-5.0,-1052.0,0,0,0,-1.2068183422088623,-3.2162258625030518,6.531356334686279
1762170563.5043619,36.0,-9.0,-1016.0,0,0,0,-1.2068183422088623,-3.2162258625030518,6.531356334686279
1762170563.6046624,11.0,4.0,-988.0,0,0,0,-1.2068183422088623,-3.2162258625030518,6.531356334686279
1762170563.7053394,15.0,-7.0,-991.0,0,0,0,-1.2068183422088623,-3.2162258625030518,6.531356334686279
1762170563.8058662,34.0,-3.0,-957.0,0,0,0,-1.2068183422088623,-3.2162258625030518,6.531356334686279
1762170563.906633,16.0,12.0,-974.0,0,0,0,-1.2068183422088623,-3.2162258625030518,6.531356334686279
1762170564.0074039,32.0,-23.0,-987.0,0,0,0,-1.2068183422088623,-3.2162258625030518,6.531356334686279
1762170564.1075387,32.0,-23.0,-987.0,0,0,0,-1.2068183422088623,-3.2162258625030518,6.531356334686279
1762170564.2079437,-1.0,-17.0,-981.0,0,0,0,-1.2068183422088623,-3.2162258625030518,6.531356334686279
1762170564.3086166,17.0,-17.0,-988.0,0,0,0,-1.2068183422088623,-3.2162258625030518,6.531356334686279
1762170564.4092119,29.0,-11.0,-996.0,0,0,0,-1.2068183422088623,-3.2162258625030518,6.531356334686279
1762170564.5099483,15.0,-7.0,-1064.0,0,0,0,-1.2068183422088623,-3.2162258625030518,6.531356334686279
1762170564.610853,12.0,-9.0,-1038.0,0,0,0,-1.2068183422088623,-3.2162258625030518,6.531356334686279
1762170564.7111669,11.0,11.0,-1020.0,0,0,0,-1.2068183422088623,-3.2162258625030518,6.531356334686279
1762170564.812036,-8.0,-10.0,-1037.0,0,0,0,-1.2068183422088623,-3.2162258625030518,6.531356334686279
1762170564.9122012,29.0,-2.0,-1000.0,0,0,0,-1.2068183422088623,-3.2162258625030518,6.531356334686279
1762170565.0127733,27.0,-12.0,-993.0,0,0,0,-1.2068183422088623,-3.2162258625030518,6.531356334686279
1762170565.1129107,7.0,-1.0,-1031.0,0,0,0,-1.2068183422088623,-3.2162258625030518,6.531356334686279
1762170565.2135541,5.0,-2.0,-946.0,0,0,0,-1.2068183422088623,-3.2162258625030518,6.531356334686279
1762170565.31439,11.0,-11.0,-962.0,0,0,0,-1.2068183422088623,-3.2162258625030518,6.531356334686279
1762170565.4147592,7.0,-19.0,-1013.0,0,0,0,-1.2068183422088623,-3.2162258625030518,6.531356334686279
1762170565.5156474,10.0,4.0,-993.0,0,0,0,-1.2068183422088623,-3.2162258625030518,6.531356334686279
1762170565.6163535,-5.0,7.0,-962.0,0,0,0,-1.2068183422088623,-3.2162258625030518,6.531356334686279
1762170565.7166617,33.0,-2.0,-1002.0,0,0,0,-1.2068183422088623,-3.2162258625030518,6.531356334686279
1762170565.8173764,-9.0,-20.0,-1026.0,0,0,0,-1.2068183422088623,-3.2162258625030518,6.531356334686279
1762170565.9178863,5.0,-18.0,-1010.0,0,0,0,-1.2068183422088623,-3.2162258625030518,6.531356334686279
1762170566.0181427,8.0,21.0,-1035.0,0,0,0,-1.2068183422088623,-3.2162258625030518,6.531356334686279
1762170566.1187873,8.0,21.0,-1035.0,0,0,0,-1.2068183422088623,-3.2162258625030518,6.531356334686279
1762170566.2192538,24.0,2.0,-1040.0,0,0,0,-1.2068183422088623,-3.2162258625030518,6.531356334686279
1762170566.3198223,25.0,-12.0,-1001.0,0,0,0,-1.2068183422088623,-3.2162258625030518,6.531356334686279
1762170566.4201908,18.0,-8.0,-1067.0,1,0,0,-1.106449842453003,-3.2162258625030518,6.531356334686279
1762170566.5209475,4.0,-21.0,-992.0,1,0,0,-1.0056931972503662,-3.2162258625030518,6.531356334686279
1762170566.6216915,2.0,-10.0,-1032.0,1,0,0,-0.9049491882324219,-3.2162258625030518,6.531356334686279
1762170566.7221696,25.0,-13.0,-981.0,1,0,0,-0.8044710159301758,-3.2162258625030518,6.531356334686279
1762170566.8223917,37.0,-12.0,-980.0,1,0,0,-0.7042489051818848,-3.2162258625030518,6.531356334686279
1762170566.9227083,23.0,-2.0,-1001.0,0,0,0,-0.7042489051818848,-3.2162258625030518,6.531356334686279
1762170567.023455,13.0,-13.0,-1015.0,0,0,0,-0.7042489051818848,-3.2162258625030518,6.531356334686279
1762170567.1241596,25.0,-3.0,-969.0,0,0,0,-0.7042489051818848,-3.2162258625030518,6.531356334686279
1762170567.2248003,0.0,-8.0,-1031.0,0,0,0,-0.7042489051818848,-3.2162258625030518,6.531356334686279
1762170567.3252604,13.0,-7.0,-1022.0,1,0,0,-0.6037888526916504,-3.2162258625030518,6.531356334686279
1762170567.4257786,9.0,-17.0,-1009.0,1,0,0,-0.5032706260681152,-3.2162258625030518,6.531356334686279
1762170567.5264292,10.0,1.0,-1009.0,1,0,0,-0.4026200771331787,-3.2162258625030518,6.531356334686279
1762170567.6270895,18.0,-4.0,-995.0,0,0,0,-0.4026200771331787,-3.2162258625030518,6.531356334686279
1762170567.7275908,18.0,-4.0,-995.0,0,0,0,-0.4026200771331787,-3.2162258625030518,6.531356334686279
1762170567.8283474,14.0,-11.0,-969.0,0,0,0,-0.4026200771331787,-3.2162258625030518,6.531356334686279
1762170567.9287055,47.0,-8.0,-1000.0,0,0,0,-0.4026200771331787,-3.2162258625030518,6.531356334686279
1762170568.0295777,24.0,-5.0,-986.0,0,0,0,-0.4026200771331787,-3.2162258625030518,6.531356334686279
1762170568.1304276,17.0,-17.0,-986.0,0,0,0,-0.4026200771331787,-3.2162258625030518,6.531356334686279
1762170568.2309918,31.0,-27.0,-959.0,0,0,0,-0.4026200771331787,-3.2162258625030518,6.531356334686279
1762170568.3314734,21.0,-22.0,-983.0,0,0,0,-0.4026200771331787,-3.2162258625030518,6.531356334686279
1762170568.432278,24.0,-8.0,-941.0,0,0,0,-0.4026200771331787,-3.2162258625030518,6.531356334686279
1762170568.5324767,20.0,-29.0,-1035.0,0,0,0,-0.4026200771331787,-3.2162258625030518,6.531356334686279
1762170568.63283,16.0,-19.0,-1047.0,1,0,0,-0.30226683616638184,-3.2162258625030518,6.531356334686279
1762170568.7332125,21.0,5.0,-1014.0,1,0,0,-0.20188426971435547,-3.2162258625030518,6.531356334686279
1762170568.8339014,11.0,5.0,-1022.0,1,0,0,-0.1011953353881836,-3.2162258625030518,6.531356334686279
1762170568.9348214,16.0,-12.0,-1033.0,1,0,0,-0.0002753734588623047,-3.2162258625030518,6.531356334686279
1762170569.0356364,-8.0,-18.0,-1004.0,1,0,0,0.1005396842956543,-3.2162258625030518,6.531356334686279
1762170569.135874,5.0,-2.0,-1015.0,1,0,0,0.20077729225158691,-3.2162258625030518,6.531356334686279
1762170569.2365024,1.0,-19.0,-1027.0,1,0,0,0.301405668258667,-3.2162258625030518,6.531356334686279
1762170569.3370528,21.0,-8.0,-1053.0,1,0,0,0.40195608139038086,-3.2162258625030518,6.531356334686279
1762170569.4374604,41.0,19.0,-973.0,1,0,0,0.5023636817932129,-3.2162258625030518,6.531356334686279
1762170569.5379195,6.0,2.0,-993.0,1,0,0,0.6028227806091309,-3.2162258625030518,6.531356334686279
1762170569.6382155,10.0,7.0,-982.0,1,0,0,0.7031188011169434,-3.2162258625030518,6.531356334686279
1762170569.7387557,24.0,14.0,-969.0,1,0,0,0.8036589622497559,-3.2162258625030518,6.531356334686279
1762170569.8391788,22.0,19.0,-979.0,1,0,0,0.9040820598602295,-3.2162258625030518,6.531356334686279
1762170569.9399316,43.0,17.0,-968.0,1,0,0,1.0048348903656006,-3.2162258625030518,6.531356334686279
1762170570.0403771,13.0,6.0,-973.0,1,0,0,1.1052803993225098,-3.2162258625030518,6.531356334686279
1762170570.1407654,30.0,2.0,-950.0,1,0,0,1.2056686878204346,-3.2162258625030518,6.531356334686279
1762170570.2412472,26.0,4.0,-988.0,1,0,0,1.3061504364013672,-3.2162258625030518,6.531356334686279
1762170570.3418386,4.0,33.0,-995.0,1,0,0,1.4067418575286865,-3.2162258625030518,6.531356334686279
1762170570.4423964,21.0,8.0,-973.0,0,0,0,1.4067418575286865,-3.2162258625030518,6.531356334686279
1762170570.5425847,40.0,9.0,-1000.0,0,0,0,1.4067418575286865,-3.2162258625030518,6.531356334686279
1762170570.6430438,41.0,0.0,-985.0,1,0,0,1.5072009563446045,-3.2162258625030518,6.531356334686279
1762170570.743569,22.0,0.0,-992.0,1,0,0,1.6077260971069336,-3.2162258625030518,6.531356334686279
1762170570.8438938,-5.0,10.0,-1032.0,0,0,0,1.6077260971069336,-3.2162258625030518,6.531356334686279
1762170570.94462,51.0,0.0,-1064.0,0,0,0,1.6077260971069336,-3.2162258625030518,6.531356334686279
1762170571.045068,19.0,19.0,-1030.0,0,1,0,1.6077260971069336,-3.1157777309417725,6.531356334686279
1762170571.1455646,48.0,-11.0,-1012.0,0,1,0,1.6077260971069336,-3.0152812004089355,6.531356334686279
1762170571.2461157,48.0,-11.0,-1012.0,0,1,0,1.6077260971069336,-2.9147300720214844,6.531356334686279
1762170571.346849,25.0,15.0,-1013.0,0,1,0,1.6077260971069336,-2.8139967918395996,6.531356334686279
1762170571.4472864,30.0,17.0,-979.0,0,1,0,1.6077260971069336,-2.71355938911438,6.531356334686279
1762170571.5474246,34.0,13.0,-990.0,1,0,0,1.7078642845153809,-2.71355938911438,6.531356334686279
1762170571.647965,1.0,9.0,-1025.0,1,0,0,1.8084046840667725,-2.71355938911438,6.531356334686279
1762170571.748114,27.0,13.0,-970.0,1,0,0,1.9085538387298584,-2.71355938911438,6.531356334686279
1762170571.8488522,14.0,-3.0,-969.0,1,0,0,2.009291887283325,-2.71355938911438,6.531356334686279
1762170571.9493427,18.0,-7.0,-986.0,1,1,0,2.1097824573516846,-2.6130688190460205,6.531356334686279
1762170572.0497248,26.0,23.0,-940.0,0,1,0,2.1097824573516846,-2.5126867294311523,6.531356334686279
1762170572.150105,14.0,-1.0,-1017.0,0,1,0,2.1097824573516846,-2.412306547164917,6.531356334686279
1762170572.250413,12.0,16.0,-940.0,0,1,0,2.1097824573516846,-2.3119986057281494,6.531356334686279
1762170572.3507023,33.0,4.0,-964.0,0,1,0,2.1097824573516846,-2.2117092609405518,6.531356334686279
1762170572.4512355,7.0,10.0,-1005.0,0,1,0,2.1097824573516846,-2.111176013946533,6.531356334686279
1762170572.551684,26.0,1.0,-1052.0,0,1,0,2.1097824573516846,-2.010727643966675,6.531356334686279
1762170572.6519217,14.0,-5.0,-1042.0,0,1,0,2.1097824573516846,-1.910489797592163,6.531356334686279
1762170572.7522838,12.0,6.0,-997.0,0,1,0,2.1097824573516846,-1.8101277351379395,6.531356334686279
1762170572.8529177,9.0,15.0,-1040.0,0,1,0,2.1097824573516846,-1.70949387550354,6.531356334686279
1762170572.9532356,35.0,2.0,-997.0,0,1,0,2.1097824573516846,-1.6091759204864502,6.531356334686279
1762170573.0536435,31.0,-13.0,-1031.0,0,1,0,2.1097824573516846,-1.508768081665039,6.531356334686279
1762170573.1540058,29.0,19.0,-976.0,0,1,0,2.1097824573516846,-1.4084057807922363,6.531356334686279
1762170573.2547293,22.0,-3.0,-940.0,0,1,0,2.1097824573516846,-1.3076822757720947,6.531356334686279
1762170573.355065,14.0,-4.0,-957.0,0,0,0,2.1097824573516846,-1.3076822757720947,6.531356334686279
1762170573.4554443,21.0,10.0,-983.0,0,0,0,2.1097824573516846,-1.3076822757720947,6.531356334686279
1762170573.5561373,11.0,3.0,-983.0,0,0,0,2.1097824573516846,-1.3076822757720947,6.531356334686279
1762170573.6570697,0.0,6.0,-1011.0,0,0,0,2.1097824573516846,-1.3076822757720947,6.531356334686279
1762170573.757848,-8.0,6.0,-1013.0,0,1,0,2.1097824573516846,-1.2069039344787598,6.531356334686279
1762170573.858081,-1.0,28.0,-1027.0,0,1,0,2.1097824573516846,-1.10667085647583,6.531356334686279
1762170573.9582586,-2.0,7.0,-1013.0,0,0,0,2.1097824573516846,-1.10667085647583,6.531356334686279
1762170574.0586333,7.0,17.0,-1012.0,0,0,0,2.1097824573516846,-1.10667085647583,6.531356334686279
1762170574.1589277,17.0,14.0,-1005.0,0,0,0,2.1097824573516846,-1.10667085647583,6.531356334686279
1762170574.2593725,6.0,11.0,-1038.0,0,1,0,2.1097824573516846,-1.0062260627746582,6.531356334686279
1762170574.360117,29.0,4.0,-1021.0,0,1,0,2.1097824573516846,-0.9054815769195557,6.531356334686279
1762170574.460363,6.0,-6.0,-1013.0,0,1,0,2.1097824573516846,-0.8052356243133545,6.531356334686279
1762170574.5605643,6.0,-6.0,-1013.0,0,1,0,2.1097824573516846,-0.7050342559814453,6.531356334686279
1762170574.6608758,35.0,-3.0,-1039.0,0,1,0,2.1097824573516846,-0.6047227382659912,6.531356334686279
1762170574.76175,6.0,8.0,-1018.0,0,1,0,2.1097824573516846,-0.5038485527038574,6.531356334686279
1762170574.8620386,27.0,4.0,-993.0,0,1,0,2.1097824573516846,-0.40355992317199707,6.531356334686279
1762170574.962424,13.0,-11.0,-923.0,0,1,0,2.1097824573516846,-0.3031744956970215,6.531356334686279
1762170575.0626693,6.0,28.0,-928.0,0,1,0,2.1097824573516846,-0.20292925834655762,6.531356334686279
1762170575.162935,19.0,-8.0,-949.0,0,1,0,2.1097824573516846,-0.10266351699829102,6.531356334686279
1762170575.2632525,12.0,14.0,-967.0,0,1,0,2.1097824573516846,-0.002346038818359375,6.531356334686279
1762170575.3634565,-11.0,12.0,-970.0,0,1,0,2.1097824573516846,0.09785795211791992,6.531356334686279
1762170575.463979,-9.0,16.0,-1022.0,0,1,-1,2.1097824573516846,0.1983804702758789,6.43083381652832
1762170575.564139,25.0,2.0,-1009.0,0,1,-1,2.1097824573516846,0.2985403537750244,6.330673933029175
1762170575.6648707,-15.0,12.0,-1052.0,0,1,-1,2.1097824573516846,0.39927220344543457,6.229942083358765
1762170575.765281,3.0,16.0,-1002.0,0,1,-1,2.1097824573516846,0.4996824264526367,6.1295318603515625
1762170575.8654773,11.0,20.0,-1038.0,0,1,0,2.1097824573516846,0.5998787879943848,6.1295318603515625
1762170575.9658816,21.0,12.0,-1069.0,0,1,0,2.1097824573516846,0.7002830505371094,6.1295318603515625
1762170576.0662334,5.0,-8.0,-1057.0,0,0,0,2.1097824573516846,0.7002830505371094,6.1295318603515625
1762170576.1670268,5.0,-8.0,-1057.0,0,0,0,2.1097824573516846,0.7002830505371094,6.1295318603515625
1762170576.2677271,15.0,14.0,-1006.0,0,1,1,2.1097824573516846,0.8009834289550781,6.230232238769531
1762170576.3682683,38.0,7.0,-970.0,0,1,1,2.1097824573516846,0.901524543762207,6.33077335357666
1762170576.4688802,16.0,7.0,-979.0,0,1,0,2.1097824573516846,1.002136468887329,6.33077335357666
1762170576.5695965,8.0,10.0,-997.0,0,1,0,2.1097824573516846,1.1028528213500977,6.33077335357666
1762170576.6698003,21.0,-10.0,-965.0,0,1,0,2.1097824573516846,1.2030565738677979,6.33077335357666
1762170576.770315,15.0,12.0,-971.0,0,1,0,2.1097824573516846,1.3035712242126465,6.33077335357666
1762170576.871014,8.0,-8.0,-971.0,0,1,0,2.1097824573516846,1.4042704105377197,6.33077335357666
1762170576.9711802,19.0,9.0,-957.0,-1,1,0,2.0096163749694824,1.5044364929199219,6.33077335357666
1762170577.0716937,31.0,-17.0,-969.0,-1,1,0,1.9091029167175293,1.604949951171875,6.33077335357666
1762170577.1722605,21.0,4.0,-985.0,-1,1,-1,1.8085360527038574,1.7055168151855469,6.230206489562988
1762170577.2725625,41.0,18.0,-1011.0,0,1,-1,1.8085360527038574,1.805818796157837,6.129904508590698
1762170577.3730469,28.0,14.0,-1010.0,0,1,-1,1.8085360527038574,1.9063031673431396,6.0294201374053955
1762170577.4735396,5.0,11.0,-994.0,0,0,-1,1.8085360527038574,1.9063031673431396,5.928927421569824
1762170577.5741682,-2.0,8.0,-1016.0,-1,0,0,1.7079074382781982,1.9063031673431396,5.928927421569824
1762170577.6743932,21.0,5.0,-1036.0,-1,0,0,1.607682466506958,1.9063031673431396,5.928927421569824
1762170577.7747169,30.0,12.0,-1043.0,-1,0,0,1.5073587894439697,1.9063031673431396,5.928927421569824
1762170577.8749344,30.0,12.0,-1043.0,-1,0,0,1.4071412086486816,1.9063031673431396,5.928927421569824
1762170577.97566,28.0,4.0,-1041.0,-1,0,0,1.3064155578613281,1.9063031673431396,5.928927421569824
1762170578.0762253,36.0,2.0,-1013.0,-1,0,0,1.20585036277771,1.9063031673431396,5.928927421569824
1762170578.176543,36.0,23.0,-1009.0,-1,0,0,1.1055326461791992,1.9063031673431396,5.928927421569824
1762170578.2771766,20.0,9.0,-989.0,-1,0,0,1.004899024963379,1.9063031673431396,5.928927421569824
1762170578.3773692,13.0,7.0,-1012.0,-1,0,0,0.9047064781188965,1.9063031673431396,5.928927421569824
1762170578.4777148,23.0,2.0,-968.0,-1,0,0,0.8043608665466309,1.9063031673431396,5.928927421569824
1762170578.578258,23.0,2.0,-968.0,-1,0,0,0.70381760597229,1.9063031673431396,5.928927421569824
1762170578.6790037,12.0,16.0,-946.0,-1,0,0,0.603071928024292,1.9063031673431396,5.928927421569824
1762170578.7794707,41.0,1.0,-986.0,-1,0,0,0.5026049613952637,1.9063031673431396,5.928927421569824
1762170578.880119,41.0,-6.0,-997.0,0,0,0,0.5026049613952637,1.9063031673431396,5.928927421569824
1762170578.9806852,41.0,-6.0,-997.0,0,0,0,0.5026049613952637,1.9063031673431396,5.928927421569824
1762170579.081463,25.0,-3.0,-995.0,-1,0,-1,0.4018270969390869,1.9063031673431396,5.8281495571136475
1762170579.1818717,25.0,-3.0,-995.0,-1,0,-1,0.3014185428619385,1.9063031673431396,5.727741003036499
1762170579.2827113,18.0,-16.0,-1018.0,-1,0,0,0.20057892799377441,1.9063031673431396,5.727741003036499
1762170579.3833702,13.0,2.0,-1037.0,0,0,0,0.20057892799377441,1.9063031673431396,5.727741003036499
1762170579.484053,2.0,19.0,-1053.0,0,0,0,0.20057892799377441,1.9063031673431396,5.727741003036499
1762170579.5843868,2.0,19.0,-1053.0,0,0,0,0.20057892799377441,1.9063031673431396,5.727741003036499
1762170579.6851912,21.0,-9.0,-990.0,-1,0,0,0.09977459907531738,1.9063031673431396,5.727741003036499
1762170579.7857232,21.0,-9.0,-990.0,-1,0,0,-0.0007574558258056641,1.9063031673431396,5.727741003036499
1762170579.885963,17.0,3.0,-1023.0,0,0,0,-0.0007574558258056641,1.9063031673431396,5.727741003036499
1762170579.9861295,-1.0,11.0,-999.0,0,0,0,-0.0007574558258056641,1.9063031673431396,5.727741003036499
1762170580.086439,-1.0,11.0,-957.0,0,0,0,-0.0007574558258056641,1.9063031673431396,5.727741003036499
1762170580.1870575,2.0,0.0,-999.0,0,0,0,-0.0007574558258056641,1.9063031673431396,5.727741003036499
1762170580.2874584,31.0,10.0,-962.0,0,0,0,-0.0007574558258056641,1.9063031673431396,5.727741003036499
1762170580.3882575,34.0,8.0,-962.0,0,0,0,-0.0007574558258056641,1.9063031673431396,5.727741003036499
1762170580.488459,34.0,8.0,-962.0,0,0,0,-0.0007574558258056641,1.9063031673431396,5.727741003036499
1762170580.5888472,42.0,-19.0,-972.0,0,0,0,-0.0007574558258056641,1.9063031673431396,5.727741003036499
1762170580.6894479,20.0,0.0,-1017.0,0,0,0,-0.0007574558258056641,1.9063031673431396,5.727741003036499
1762170580.7897642,18.0,0.0,-1020.0,0,0,0,-0.0007574558258056641,1.9063031673431396,5.727741003036499
1762170580.8903673,5.0,8.0,-1053.0,0,0,0,-0.0007574558258056641,1.9063031673431396,5.727741003036499
1762170580.9910119,12.0,-6.0,-1003.0,0,0,0,-0.0007574558258056641,1.9063031673431396,5.727741003036499
1762170581.091389,17.0,-1.0,-972.0,0,0,0,-0.0007574558258056641,1.9063031673431396,5.727741003036499
1762170581.1915357,45.0,-5.0,-1014.0,0,0,0,-0.0007574558258056641,1.9063031673431396,5.727741003036499
1762170581.2920897,34.0,-20.0,-976.0,0,0,0,-0.0007574558258056641,1.9063031673431396,5.727741003036499
1762170581.392338,61.0,10.0,-997.0,0,0,0,-0.0007574558258056641,1.9063031673431396,5.727741003036499
1762170581.4926958,29.0,13.0,-1024.0,0,0,0,-0.0007574558258056641,1.9063031673431396,5.727741003036499
1762170581.5932949,36.0,47.0,-1021.0,0,0,0,-0.0007574558258056641,1.9063031673431396,5.727741003036499
1762170581.6935222,38.0,14.0,-1019.0,0,0,0,-0.0007574558258056641,1.9063031673431396,5.727741003036499
1762170581.7939217,15.0,12.0,-1040.0,0,0,0,-0.0007574558258056641,1.9063031673431396,5.727741003036499
1762170581.8946366,35.0,15.0,-990.0,0,0,0,-0.0007574558258056641,1.9063031673431396,5.727741003036499
1762170581.9956148,12.0,18.0,-1013.0,0,0,0,-0.0007574558258056641,1.9063031673431396,5.727741003036499
1762170582.0962043,45.0,24.0,-978.0,0,0,0,-0.0007574558258056641,1.9063031673431396,5.727741003036499
1762170582.1970775,57.0,22.0,-990.0,0,0,0,-0.0007574558258056641,1.9063031673431396,5.727741003036499
1762170582.2978597,39.0,22.0,-994.0,0,0,0,-0.0007574558258056641,1.9063031673431396,5.727741003036499
1762170582.3981462,32.0,-4.0,-999.0,0,0,0,-0.0007574558258056641,1.9063031673431396,5.727741003036499
1762170582.4990642,17.0,-4.0,-1038.0,0,0,0,-0.0007574558258056641,1.9063031673431396,5.727741003036499
1762170582.599683,34.0,12.0,-962.0,0,0,0,-0.0007574558258056641,1.9063031673431396,5.727741003036499
1762170582.700709,20.0,-4.0,-1009.0,0,0,0,-0.0007574558258056641,1.9063031673431396,5.727741003036499
1762170582.8009543,26.0,11.0,-1022.0,0,0,0,-0.0007574558258056641,1.9063031673431396,5.727741003036499
1762170582.9012222,8.0,0.0,-985.0,0,0,0,-0.0007574558258056641,1.9063031673431396,5.727741003036499
1762170583.0021095,24.0,4.0,-960.0,0,0,0,-0.0007574558258056641,1.9063031673431396,5.727741003036499
1762170583.102862,35.0,-17.0,-953.0,0,0,0,-0.0007574558258056641,1.9063031673431396,5.727741003036499
1762170583.203083,5.0,14.0,-947.0,0,0,0,-0.0007574558258056641,1.9063031673431396,5.727741003036499
1762170583.3034601,10.0,0.0,-1013.0,0,0,0,-0.0007574558258056641,1.9063031673431396,5.727741003036499
1762170583.403645,10.0,0.0,-1013.0,0,0,0,-0.0007574558258056641,1.9063031673431396,5.727741003036499
1762170583.5043514,16.0,-7.0,-1019.0,0,0,0,-0.0007574558258056641,1.9063031673431396,5.727741003036499
1762170583.6046612,21.0,-7.0,-1021.0,0,0,0,-0.0007574558258056641,1.9063031673431396,5.727741003036499
1762170583.704938,21.0,-7.0,-1021.0,0,0,0,-0.0007574558258056641,1.9063031673431396,5.727741003036499
1762170583.8056524,21.0,-7.0,-1021.0,0,0,0,-0.0007574558258056641,1.9063031673431396,5.727741003036499
1762170583.9063342,15.0,11.0,-1015.0,0,0,0,-0.0007574558258056641,1.9063031673431396,5.727741003036499
1762170584.0064895,0.0,11.0,-991.0,0,0,0,-0.0007574558258056641,1.9063031673431396,5.727741003036499
1762170584.1067357,-2.0,3.0,-995.0,0,0,0,-0.0007574558258056641,1.9063031673431396,5.727741003036499
1762170584.207091,0.0,3.0,-1023.0,0,0,0,-0.0007574558258056641,1.9063031673431396,5.727741003036499
1762170584.3073666,0.0,5.0,-984.0,0,0,0,-0.0007574558258056641,1.9063031673431396,5.727741003036499
1762170584.408226,-6.0,16.0,-1001.0,0,0,0,-0.0007574558258056641,1.9063031673431396,5.727741003036499
1762170584.5088694,-3.0,7.0,-1000.0,0,0,0,-0.0007574558258056641,1.9063031673431396,5.727741003036499
1762170584.6090217,-15.0,19.0,-1005.0,0,0,0,-0.0007574558258056641,1.9063031673431396,5.727741003036499
1762170584.7093925,-15.0,19.0,-1005.0,0,0,0,-0.0007574558258056641,1.9063031673431396,5.727741003036499
1762170584.8095603,-1.0,23.0,-1020.0,0,0,0,-0.0007574558258056641,1.9063031673431396,5.727741003036499
1762170584.9100597,4.0,19.0,-987.0,0,0,0,-0.0007574558258056641,1.9063031673431396,5.727741003036499
1762170585.0103831,18.0,-14.0,-1021.0,0,0,0,-0.0007574558258056641,1.9063031673431396,5.727741003036499
1762170585.1109354,-3.0,-2.0,-1046.0,0,0,0,-0.0007574558258056641,1.9063031673431396,5.727741003036499
1762170585.2118769,12.0,18.0,-998.0,0,0,0,-0.0007574558258056641,1.9063031673431396,5.727741003036499
1762170585.3124747,3.0,14.0,-1005.0,0,0,0,-0.0007574558258056641,1.9063031673431396,5.727741003036499
1762170585.4129655,22.0,-3.0,-999.0,0,0,0,-0.0007574558258056641,1.9063031673431396,5.727741003036499
1762170585.5131254,19.0,1.0,-987.0,0,0,0,-0.0007574558258056641,1.9063031673431396,5.727741003036499
1762170585.613987,20.0,-1.0,-1020.0,0,0,0,-0.0007574558258056641,1.9063031673431396,5.727741003036499
1762170585.7142375,27.0,-4.0,-1015.0,0,0,0,-0.0007574558258056641,1.9063031673431396,5.727741003036499
1762170585.8150964,-5.0,-13.0,-991.0,0,0,0,-0.0007574558258056641,1.9063031673431396,5.727741003036499
1762170585.915867,8.0,3.0,-1023.0,0,0,0,-0.0007574558258056641,1.9063031673431396,5.727741003036499
1762170586.0166414,0.0,-4.0,-999.0,0,0,0,-0.0007574558258056641,1.9063031673431396,5.727741003036499
1762170586.1173794,27.0,-8.0,-1011.0,0,0,0,-0.0007574558258056641,1.9063031673431396,5.727741003036499
1762170586.218144,20.0,-19.0,-1025.0,0,0,0,-0.0007574558258056641,1.9063031673431396,5.727741003036499
1762170586.3185797,8.0,-18.0,-980.0,0,0,0,-0.0007574558258056641,1.9063031673431396,5.727741003036499
1762170586.4189878,21.0,0.0,-1018.0,0,0,0,-0.0007574558258056641,1.9063031673431396,5.727741003036499
1762170586.5193617,18.0,10.0,-1007.0,0,0,0,-0.0007574558258056641,1.9063031673431396,5.727741003036499
1762170586.6200838,15.0,-14.0,-980.0,0,0,0,-0.0007574558258056641,1.9063031673431396,5.727741003036499
1762170586.7207456,18.0,2.0,-997.0,0,0,0,-0.0007574558258056641,1.9063031673431396,5.727741003036499
1762170586.8210902,5.0,-3.0,-995.0,0,0,0,-0.0007574558258056641,1.9063031673431396,5.727741003036499
1762170586.9218154,-1.0,0.0,-1009.0,0,0,0,-0.0007574558258056641,1.9063031673431396,5.727741003036499
1762170587.0221214,-8.0,-15.0,-950.0,0,0,0,-0.0007574558258056641,1.9063031673431396,5.727741003036499
1762170587.122542,24.0,-2.0,-946.0,0,0,0,-0.0007574558258056641,1.9063031673431396,5.727741003036499
1762170587.2227862,13.0,-7.0,-957.0,0,0,0,-0.0007574558258056641,1.9063031673431396,5.727741003036499
1762170587.3232067,17.0,11.0,-1007.0,0,0,0,-0.0007574558258056641,1.9063031673431396,5.727741003036499
1762170587.423858,-4.0,-2.0,-995.0,0,0,0,-0.0007574558258056641,1.9063031673431396,5.727741003036499
1762170587.5242496,-4.0,5.0,-990.0,0,0,0,-0.0007574558258056641,1.9063031673431396,5.727741003036499
1762170587.6250088,24.0,-7.0,-969.0,0,0,0,-0.0007574558258056641,1.9063031673431396,5.727741003036499
1762170587.7252326,2.0,-12.0,-993.0,0,0,0,-0.0007574558258056641,1.9063031673431396,5.727741003036499
1762170587.8258228,31.0,3.0,-975.0,0,0,0,-0.0007574558258056641,1.9063031673431396,5.727741003036499
1762170587.9268875,12.0,-4.0,-1012.0,0,0,0,-0.0007574558258056641,1.9063031673431396,5.727741003036499
1762170588.0271854,4.0,12.0,-983.0,0,0,0,-0.0007574558258056641,1.9063031673431396,5.727741003036499
1762170588.1275356,4.0,12.0,-983.0,0,0,0,-0.0007574558258056641,1.9063031673431396,5.727741003036499
1762170588.228086,-4.0,-11.0,-995.0,0,0,0,-0.0007574558258056641,1.9063031673431396,5.727741003036499
1762170588.3285954,-6.0,-19.0,-1005.0,0,0,0,-0.0007574558258056641,1.9063031673431396,5.727741003036499
1762170588.429398,21.0,2.0,-1005.0,0,0,0,-0.0007574558258056641,1.9063031673431396,5.727741003036499
1762170588.529691,20.0,-25.0,-976.0,0,0,0,-0.0007574558258056641,1.9063031673431396,5.727741003036499
1762170588.6300318,15.0,-8.0,-1002.0,0,0,0,-0.0007574558258056641,1.9063031673431396,5.727741003036499
1762170588.7302854,21.0,5.0,-1029.0,0,0,0,-0.0007574558258056641,1.9063031673431396,5.727741003036499
1762170588.8306704,-3.0,-10.0,-983.0,0,0,0,-0.0007574558258056641,1.9063031673431396,5.727741003036499
1762170588.9309812,3.0,0.0,-1031.0,0,0,0,-0.0007574558258056641,1.9063031673431396,5.727741003036499
1762170589.0317893,27.0,-10.0,-975.0,0,0,0,-0.0007574558258056641,1.9063031673431396,5.727741003036499
1762170589.1328459,37.0,-8.0,-940.0,0,0,0,-0.0007574558258056641,1.9063031673431396,5.727741003036499
1762170589.233155,21.0,5.0,-993.0,0,0,0,-0.0007574558258056641,1.9063031673431396,5.727741003036499
1762170589.3334255,17.0,5.0,-979.0,0,0,0,-0.0007574558258056641,1.9063031673431396,5.727741003036499
1762170589.4337785,11.0,-4.0,-1022.0,0,0,0,-0.0007574558258056641,1.9063031673431396,5.727741003036499
1762170589.5343654,6.0,-3.0,-990.0,0,0,0,-0.0007574558258056641,1.9063031673431396,5.727741003036499
1762170589.6348152,31.0,-7.0,-1025.0,0,0,0,-0.0007574558258056641,1.9063031673431396,5.727741003036499
1762170589.7358067,21.0,-19.0,-1032.0,0,0,0,-0.0007574558258056641,1.9063031673431396,5.727741003036499
1762170589.8361044,35.0,-11.0,-988.0,0,0,0,-0.0007574558258056641,1.9063031673431396,5.727741003036499
1762170589.9364924,39.0,-17.0,-981.0,0,0,0,-0.0007574558258056641,1.9063031673431396,5.727741003036499
1762170590.0367892,11.0,-24.0,-969.0,0,0,0,-0.0007574558258056641,1.9063031673431396,5.727741003036499
1762170590.1372874,7.0,-27.0,-1021.0,0,0,0,-0.0007574558258056641,1.9063031673431396,5.727741003036499
1762170590.238159,17.0,11.0,-950.0,0,0,0,-0.0007574558258056641,1.9063031673431396,5.727741003036499
1762170590.339026,16.0,-12.0,-1018.0,0,0,0,-0.0007574558258056641,1.9063031673431396,5.727741003036499
1762170590.4393816,7.0,3.0,-1039.0,0,0,0,-0.0007574558258056641,1.9063031673431396,5.727741003036499
1762170590.5397596,19.0,7.0,-981.0,0,0,0,-0.0007574558258056641,1.9063031673431396,5.727741003036499
1762170590.6403008,14.0,-15.0,-927.0,0,0,-1,-0.0007574558258056641,1.9063031673431396,5.62719988822937
1762170590.7408087,17.0,-4.0,-921.0,0,0,-2,-0.0007574558258056641,1.9063031673431396,5.4261839389801025
1762170590.841004,12.0,23.0,-923.0,0,0,-3,-0.0007574558258056641,1.9063031673431396,5.125598430633545
1762170590.9414978,25.0,12.0,-908.0,0,0,-4,-0.0007574558258056641,1.9063031673431396,4.723622798919678
1762170591.0416522,25.0,1.0,-915.0,0,0,-4,-0.0007574558258056641,1.9063031673431396,4.323005199432373
1762170591.1421268,24.0,25.0,-938.0,0,0,-4,-0.0007574558258056641,1.9063031673431396,3.9211068153381348
1762170591.2424083,57.0,5.0,-989.0,0,0,-4,-0.0007574558258056641,1.9063031673431396,3.5199809074401855
1762170591.3428788,49.0,0.0,-1019.0,0,0,-4,-0.0007574558258056641,1.9063031673431396,3.118098735809326
1762170591.443188,29.0,26.0,-940.0,0,0,-4,-0.0007574558258056641,1.9063031673431396,2.716862201690674
1762170591.543743,-4.0,-16.0,-991.0,0,0,-5,-0.0007574558258056641,1.9063031673431396,2.21408748626709
1762170591.643935,-4.0,-16.0,-991.0,0,0,-5,-0.0007574558258056641,1.9063031673431396,1.7131271362304688
1762170591.7442064,30.0,-7.0,-1039.0,0,0,-5,-0.0007574558258056641,1.9063031673431396,1.2117698192596436
1762170591.8445215,-4.0,-5.0,-1027.0,0,0,-4,-0.0007574558258056641,1.9063031673431396,0.810509443283081
1762170591.9446878,-9.0,5.0,-1002.0,0,0,-4,-0.0007574558258056641,1.9063031673431396,0.40984416007995605
1762170592.044827,-13.0,-6.0,-983.0,0,0,-4,-0.0007574558258056641,1.9063031673431396,0.009287595748901367
1762170592.1453793,-3.0,44.0,-1030.0,0,0,-4,-0.0007574558258056641,1.9063031673431396,-0.39292168617248535
1762170592.2457757,-32.0,-28.0,-1073.0,0,0,-4,-0.0007574558258056641,1.9063031673431396,-0.7945072650909424
1762170592.346056,-35.0,-5.0,-1166.0,0,0,-3,-0.0007574558258056641,1.9063031673431396,-1.0953481197357178
1762170592.4466467,-46.0,24.0,-1174.0,0,0,-1,-0.0007574558258056641,1.9063031673431396,-1.1959388256072998
1762170592.5469708,-46.0,41.0,-1065.0,0,0,0,-0.0007574558258056641,1.9063031673431396,-1.1959388256072998
1762170592.6472404,-39.0,0.0,-960.0,0,0,0,-0.0007574558258056641,1.9063031673431396,-1.1959388256072998
1762170592.7475657,-23.0,-4.0,-937.0,0,0,0,-0.0007574558258056641,1.9063031673431396,-1.1959388256072998
1762170592.8482924,201.0,-96.0,-1093.0,0,0,0,-0.0007574558258056641,1.9063031673431396,-1.1959388256072998
1762170592.9488704,46.0,46.0,-832.0,0,0,0,-0.0007574558258056641,1.9063031673431396,-1.1959388256072998
1762170593.0494237,19.0,0.0,-982.0,0,0,0,-0.0007574558258056641,1.9063031673431396,-1.1959388256072998
1762170593.149986,-14.0,28.0,-1016.0,-1,0,0,-0.10131978988647461,1.9063031673431396,-1.1959388256072998
1762170593.250408,-14.0,28.0,-1016.0,-1,0,0,-0.20174169540405273,1.9063031673431396,-1.1959388256072998
1762170593.3512115,-80.0,-672.0,-436.0,-1,0,0,-0.30254530906677246,1.9063031673431396,-1.1959388256072998
1762170593.4518669,31.0,-16.0,-996.0,-1,0,0,-0.403200626373291,1.9063031673431396,-1.1959388256072998
1762170593.552238,-20.0,19.0,-1006.0,-1,0,0,-0.5035717487335205,1.9063031673431396,-1.1959388256072998
1762170593.652656,8.0,-8.0,-1017.0,-1,0,0,-0.603989839553833,1.9063031673431396,-1.1959388256072998
1762170593.753237,7.0,1.0,-1000.0,-1,0,0,-0.7045707702636719,1.9063031673431396,-1.1959388256072998
1762170593.853501,-14.0,13.0,-1002.0,-1,0,0,-0.8048348426818848,1.9063031673431396,-1.1959388256072998
1762170593.9541545,0.0,2.0,-1002.0,-1,0,0,-0.9054882526397705,1.9063031673431396,-1.1959388256072998
1762170594.0543633,15.0,-10.0,-999.0,-1,0,0,-1.0056970119476318,1.9063031673431396,-1.1959388256072998
1762170594.1549363,-9.0,0.0,-1006.0,-1,0,0,-1.1062700748443604,1.9063031673431396,-1.1959388256072998
1762170594.255406,-7.0,6.0,-1009.0,0,0,0,-1.1062700748443604,1.9063031673431396,-1.1959388256072998
1762170594.3556128,9.0,2.0,-1002.0,0,0,0,-1.1062700748443604,1.9063031673431396,-1.1959388256072998
1762170594.4559076,8.0,0.0,-999.0,0,0,0,-1.1062700748443604,1.9063031673431396,-1.1959388256072998
1762170594.556324,0.0,-10.0,-999.0,0,0,0,-1.1062700748443604,1.9063031673431396,-1.1959388256072998
1762170594.657024,1.0,0.0,-1000.0,0,0,1,-1.1062700748443604,1.9063031673431396,-1.0952389240264893
1762170594.7576203,8.0,7.0,-1005.0,0,0,1,-1.1062700748443604,1.9063031673431396,-0.9946424961090088
1762170594.8577664,8.0,7.0,-1005.0,0,0,1,-1.1062700748443604,1.9063031673431396,-0.8944964408874512
1762170594.9579487,5.0,0.0,-1003.0,0,0,1,-1.1062700748443604,1.9063031673431396,-0.7943141460418701
1762170595.0580997,8.0,0.0,-998.0,0,0,1,-1.1062700748443604,1.9063031673431396,-0.6941630840301514
1762170595.1586428,6.0,-1.0,-1000.0,0,0,1,-1.1062700748443604,1.9063031673431396,-0.5936200618743896
1762170595.2593813,1.0,5.0,-1009.0,0,0,1,-1.1062700748443604,1.9063031673431396,-0.49288153648376465
1762170595.35982,0.0,2.0,-1000.0,0,0,1,-1.1062700748443604,1.9063031673431396,-0.3924429416656494
1762170595.4600337,-4.0,-7.0,-1004.0,0,0,1,-1.1062700748443604,1.9063031673431396,-0.29222917556762695
1762170595.5604877,5.0,0.0,-1000.0,0,0,1,-1.1062700748443604,1.9063031673431396,-0.19177508354187012
1762170595.6607592,6.0,1.0,-1004.0,0,0,1,-1.1062700748443604,1.9063031673431396,-0.09150362014770508
1762170595.7610762,1.0,-4.0,-1002.0,0,0,0,-1.1062700748443604,1.9063031673431396,-0.09150362014770508
1762170595.8618712,-5.0,4.0,-1008.0,0,0,0,-1.1062700748443604,1.9063031673431396,-0.09150362014770508
1762170595.9625757,8.0,0.0,-1002.0,0,0,0,-1.1062700748443604,1.9063031673431396,-0.09150362014770508
1762170596.063361,5.0,0.0,-1003.0,0,0,0,-1.1062700748443604,1.9063031673431396,-0.09150362014770508
1762170596.1637146,6.0,0.0,-1002.0,0,0,0,-1.1062700748443604,1.9063031673431396,-0.09150362014770508
1762170596.2639337,2.0,0.0,-1002.0,0,0,0,-1.1062700748443604,1.9063031673431396,-0.09150362014770508
1762170596.3642826,5.0,0.0,-1003.0,0,0,0,-1.1062700748443604,1.9063031673431396,-0.09150362014770508
1762170596.4650836,3.0,0.0,-1002.0,0,0,0,-1.1062700748443604,1.9063031673431396,-0.09150362014770508
1762170596.565901,1.0,0.0,-1005.0,0,0,0,-1.1062700748443604,1.9063031673431396,-0.09150362014770508
1762170596.666323,2.0,0.0,-1000.0,0,0,0,-1.1062700748443604,1.9063031673431396,-0.09150362014770508
1762170596.7665112,4.0,0.0,-1001.0,0,0,0,-1.1062700748443604,1.9063031673431396,-0.09150362014770508
1762170596.8667068,3.0,-1.0,-1003.0,0,0,0,-1.1062700748443604,1.9063031673431396,-0.09150362014770508
1762170596.9669962,2.0,0.0,-1000.0,0,0,0,-1.1062700748443604,1.9063031673431396,-0.09150362014770508
1762170597.0677714,3.0,0.0,-1003.0,0,0,0,-1.1062700748443604,1.9063031673431396,-0.09150362014770508
1762170597.1682415,4.0,1.0,-1001.0,0,0,0,-1.1062700748443604,1.9063031673431396,-0.09150362014770508
1762170597.2689726,3.0,0.0,-1001.0,0,0,0,-1.1062700748443604,1.9063031673431396,-0.09150362014770508
1762170597.3693066,3.0,0.0,-1002.0,0,0,0,-1.1062700748443604,1.9063031673431396,-0.09150362014770508
1762170597.4699981,3.0,-1.0,-1000.0,0,0,0,-1.1062700748443604,1.9063031673431396,-0.09150362014770508
1762170597.5703232,3.0,-1.0,-1002.0,0,0,0,-1.1062700748443604,1.9063031673431396,-0.09150362014770508
