Time,Ax,Ay,Az,Sx,Sy,Sz,x,y,z
1762165895.7949724,0.0,-4.0,-1001.0,0,0,0,0.0,0.0,0.0
1762165895.9098504,0.0,-4.0,-1001.0,0,0,0,0.0,0.0,0.0
1762165896.0214326,0.0,-3.0,-999.0,0,0,0,0.0,0.0,0.0
1762165896.126239,0.0,-4.0,-1000.0,0,0,0,0.0,0.0,0.0
1762165896.2397392,0.0,-5.0,-1000.0,0,0,0,0.0,0.0,0.0
1762165896.352134,0.0,-3.0,-1003.0,0,0,0,0.0,0.0,0.0
1762165896.4651675,0.0,-4.0,-998.0,0,0,0,0.0,0.0,0.0
1762165896.578052,1.0,-3.0,-1003.0,0,0,0,0.0,0.0,0.0
1762165896.6934512,0.0,-4.0,-999.0,0,0,0,0.0,0.0,0.0
1762165896.8069196,-1.0,-3.0,-999.0,0,0,0,0.0,0.0,0.0
1762165896.9203866,0.0,-3.0,-998.0,0,0,0,0.0,0.0,0.0
1762165897.033307,0.0,-3.0,-998.0,0,0,0,0.0,0.0,0.0
1762165897.1458235,0.0,-4.0,-999.0,0,0,0,0.0,0.0,0.0
1762165897.2567906,0.0,-5.0,-1001.0,0,0,0,0.0,0.0,0.0
1762165897.3690696,0.0,-4.0,-1000.0,0,0,0,0.0,0.0,0.0
1762165897.4815247,0.0,-3.0,-999.0,0,0,0,0.0,0.0,0.0
1762165897.593685,0.0,-2.0,-998.0,0,0,0,0.0,0.0,0.0
1762165897.709947,0.0,-4.0,-1000.0,0,0,0,0.0,0.0,0.0
1762165897.8225815,0.0,-4.0,-997.0,0,0,0,0.0,0.0,0.0
1762165897.9349968,-1.0,-5.0,-999.0,0,0,0,0.0,0.0,0.0
1762165898.0470903,0.0,-3.0,-1000.0,0,0,0,0.0,0.0,0.0
1762165898.1604657,-1.0,-3.0,-999.0,0,0,0,0.0,0.0,0.0
1762165898.2761636,-1.0,-4.0,-999.0,0,0,0,0.0,0.0,0.0
1762165898.387666,0.0,-4.0,-998.0,0,0,0,0.0,0.0,0.0
1762165898.5006402,0.0,-4.0,-999.0,0,0,0,0.0,0.0,0.0
1762165898.6126258,0.0,-4.0,-997.0,0,0,0,0.0,0.0,0.0
1762165898.724577,0.0,-5.0,-999.0,0,0,0,0.0,0.0,0.0
1762165898.8435328,0.0,-3.0,-1000.0,0,0,0,0.0,0.0,0.0
1762165898.9596038,0.0,-2.0,-1000.0,0,0,0,0.0,0.0,0.0
1762165899.0710392,-1.0,0.0,-1001.0,0,0,0,0.0,0.0,0.0
1762165899.1837733,5.0,-7.0,-1002.0,0,0,0,0.0,0.0,0.0
1762165899.294436,-7.0,12.0,-1001.0,0,0,0,0.0,0.0,0.0
1762165899.406907,5.0,5.0,-1003.0,0,0,0,0.0,0.0,0.0
1762165899.5199418,-4.0,-10.0,-1015.0,0,0,0,0.0,0.0,0.0
1762165899.6325097,4.0,4.0,-995.0,0,0,0,0.0,0.0,0.0
1762165899.7443047,18.0,-22.0,-1067.0,0,0,0,0.0,0.0,0.0
1762165899.8582222,-1.0,-14.0,-1070.0,0,0,0,0.0,0.0,0.0
1762165899.9707403,-10.0,-1.0,-1133.0,0,0,1,0.0,0.0,0.1125180721282959
1762165900.0828013,6.0,-25.0,-1009.0,0,-1,4,0.0,-0.1120610237121582,0.5607621669769287
1762165900.1944356,-11.0,0.0,-1047.0,0,0,4,0.0,-0.1120610237121582,1.0072991847991943
1762165900.3075154,0.0,-4.0,-1028.0,0,0,4,0.0,-0.1120610237121582,1.459618330001831
1762165900.4228008,0.0,-16.0,-1008.0,0,0,4,0.0,-0.1120610237121582,1.920759916305542
1762165900.5357132,3.0,-42.0,-1021.0,0,0,4,0.0,-0.1120610237121582,2.3724095821380615
1762165900.6485355,5.0,-1.0,-991.0,0,0,4,0.0,-0.1120610237121582,2.8236987590789795
1762165900.7619922,9.0,-27.0,-978.0,0,0,4,0.0,-0.1120610237121582,3.2775256633758545
1762165900.8747797,-6.0,-2.0,-991.0,0,0,4,0.0,-0.1120610237121582,3.728675603866577
1762165900.9908068,2.0,1.0,-956.0,0,0,4,0.0,-0.1120610237121582,4.192784070968628
1762165901.1036303,5.0,-27.0,-932.0,0,0,4,0.0,-0.1120610237121582,4.644078016281128
1762165901.2151966,3.0,-13.0,-913.0,0,0,3,0.0,-0.1120610237121582,4.978776931762695
1762165901.3287435,5.0,-15.0,-933.0,0,0,3,0.0,-0.1120610237121582,5.319417476654053
1762165901.442113,6.0,-14.0,-904.0,0,0,2,0.0,-0.1120610237121582,5.546156406402588
1762165901.5550907,-1.0,-6.0,-925.0,0,0,1,0.0,-0.1120610237121582,5.659134149551392
1762165901.665982,-6.0,-13.0,-920.0,0,0,0,0.0,-0.1120610237121582,5.659134149551392
1762165901.778694,-1.0,-17.0,-939.0,0,0,0,0.0,-0.1120610237121582,5.659134149551392
1762165901.890565,1.0,-10.0,-932.0,0,0,0,0.0,-0.1120610237121582,5.659134149551392
1762165902.0064228,-3.0,-25.0,-959.0,0,0,-1,0.0,-0.1120610237121582,5.543276309967041
1762165902.119569,-2.0,1.0,-976.0,0,0,-1,0.0,-0.1120610237121582,5.4301300048828125
1762165902.2315688,0.0,-7.0,-994.0,0,0,-1,0.0,-0.1120610237121582,5.318130254745483
1762165902.3441896,-1.0,-10.0,-996.0,0,0,-1,0.0,-0.1120610237121582,5.205509424209595
1762165902.4588346,0.0,-8.0,-1000.0,0,0,-1,0.0,-0.1120610237121582,5.090864419937134
1762165902.5738285,-5.0,-8.0,-1008.0,0,0,-1,0.0,-0.1120610237121582,4.975870609283447
1762165902.686058,-13.0,-14.0,-1022.0,0,0,0,0.0,-0.1120610237121582,4.975870609283447
1762165902.7988424,-9.0,-32.0,-1031.0,0,0,0,0.0,-0.1120610237121582,4.975870609283447
1762165902.912512,-24.0,-23.0,-1035.0,0,0,0,0.0,-0.1120610237121582,4.975870609283447
1762165903.0258496,-21.0,-31.0,-1010.0,0,0,0,0.0,-0.1120610237121582,4.975870609283447
1762165903.1375244,5.0,1.0,-1034.0,0,0,0,0.0,-0.1120610237121582,4.975870609283447
1762165903.2498198,4.0,-45.0,-1038.0,0,0,0,0.0,-0.1120610237121582,4.975870609283447
1762165903.3621325,-1.0,1.0,-985.0,0,0,0,0.0,-0.1120610237121582,4.975870609283447
1762165903.4750853,-19.0,-5.0,-997.0,0,0,0,0.0,-0.1120610237121582,4.975870609283447
1762165903.590461,14.0,19.0,-1001.0,0,0,0,0.0,-0.1120610237121582,4.975870609283447
1762165903.7030709,0.0,-21.0,-999.0,0,0,0,0.0,-0.1120610237121582,4.975870609283447
1762165903.8171186,6.0,7.0,-1006.0,0,0,0,0.0,-0.1120610237121582,4.975870609283447
1762165903.9300294,0.0,-25.0,-1001.0,0,0,0,0.0,-0.1120610237121582,4.975870609283447
1762165904.042279,-2.0,0.0,-997.0,0,0,0,0.0,-0.1120610237121582,4.975870609283447
1762165904.1587849,8.0,10.0,-979.0,0,0,0,0.0,-0.1120610237121582,4.975870609283447
1762165904.2723706,1.0,-14.0,-1001.0,0,0,0,0.0,-0.1120610237121582,4.975870609283447
1762165904.384924,-9.0,-26.0,-1001.0,0,0,0,0.0,-0.1120610237121582,4.975870609283447
1762165904.4977782,8.0,-19.0,-1004.0,0,0,0,0.0,-0.1120610237121582,4.975870609283447
1762165904.6100328,2.0,-11.0,-1005.0,0,0,0,0.0,-0.1120610237121582,4.975870609283447
1762165904.722923,4.0,-20.0,-991.0,0,0,0,0.0,-0.1120610237121582,4.975870609283447
1762165904.836476,-9.0,0.0,-978.0,0,0,0,0.0,-0.1120610237121582,4.975870609283447
1762165904.9496906,-8.0,-4.0,-991.0,0,0,0,0.0,-0.1120610237121582,4.975870609283447
1762165905.0604146,-8.0,-5.0,-1001.0,0,0,0,0.0,-0.1120610237121582,4.975870609283447
1762165905.1608438,0.0,-28.0,-987.0,0,0,0,0.0,-0.1120610237121582,4.975870609283447
1762165905.2719824,9.0,-24.0,-985.0,0,0,0,0.0,-0.1120610237121582,4.975870609283447
1762165905.3851986,-6.0,-22.0,-993.0,0,0,0,0.0,-0.1120610237121582,4.975870609283447
1762165905.4972634,-14.0,-16.0,-972.0,0,0,0,0.0,-0.1120610237121582,4.975870609283447
1762165905.6099758,-1.0,-12.0,-1006.0,0,0,0,0.0,-0.1120610237121582,4.975870609283447
1762165905.7258456,0.0,0.0,-1002.0,0,0,0,0.0,-0.1120610237121582,4.975870609283447
1762165905.8389711,7.0,-23.0,-1030.0,0,0,0,0.0,-0.1120610237121582,4.975870609283447
1762165905.94964,-5.0,-27.0,-1009.0,0,0,0,0.0,-0.1120610237121582,4.975870609283447
1762165906.0627,-4.0,-8.0,-998.0,0,0,0,0.0,-0.1120610237121582,4.975870609283447
1762165906.1746058,0.0,-29.0,-1021.0,0,0,0,0.0,-0.1120610237121582,4.975870609283447
1762165906.2891245,2.0,-41.0,-967.0,0,0,0,0.0,-0.1120610237121582,4.975870609283447
1762165906.4012823,-19.0,0.0,-1010.0,0,0,0,0.0,-0.1120610237121582,4.975870609283447
1762165906.5140576,-15.0,-21.0,-978.0,0,0,0,0.0,-0.1120610237121582,4.975870609283447
1762165906.625951,-24.0,-18.0,-989.0,0,0,0,0.0,-0.1120610237121582,4.975870609283447
1762165906.7424846,3.0,-24.0,-991.0,0,0,0,0.0,-0.1120610237121582,4.975870609283447
1762165906.8555293,12.0,-9.0,-988.0,0,0,0,0.0,-0.1120610237121582,4.975870609283447
1762165906.9686162,-8.0,-34.0,-1010.0,0,0,0,0.0,-0.1120610237121582,4.975870609283447
1762165907.082151,1.0,-24.0,-973.0,0,0,0,0.0,-0.1120610237121582,4.975870609283447
1762165907.1958034,-14.0,-27.0,-975.0,0,0,0,0.0,-0.1120610237121582,4.975870609283447
1762165907.3082762,0.0,-33.0,-1005.0,0,0,0,0.0,-0.1120610237121582,4.975870609283447
1762165907.4212894,11.0,-30.0,-995.0,0,0,0,0.0,-0.1120610237121582,4.975870609283447
1762165907.5333645,2.0,5.0,-999.0,0,0,0,0.0,-0.1120610237121582,4.975870609283447
1762165907.6465168,-13.0,-24.0,-1017.0,0,0,0,0.0,-0.1120610237121582,4.975870609283447
1762165907.7472456,7.0,-28.0,-1003.0,0,0,0,0.0,-0.1120610237121582,4.975870609283447
1762165907.856653,6.0,-34.0,-1001.0,0,0,0,0.0,-0.1120610237121582,4.975870609283447
1762165907.969693,-2.0,-14.0,-1029.0,0,0,0,0.0,-0.1120610237121582,4.975870609283447
1762165908.082951,0.0,-40.0,-999.0,0,0,0,0.0,-0.1120610237121582,4.975870609283447
1762165908.1945863,-3.0,4.0,-983.0,0,0,0,0.0,-0.1120610237121582,4.975870609283447
1762165908.3104482,-22.0,1.0,-1028.0,0,0,0,0.0,-0.1120610237121582,4.975870609283447
1762165908.4237459,-12.0,-2.0,-981.0,0,0,0,0.0,-0.1120610237121582,4.975870609283447
1762165908.5370383,1.0,-32.0,-1005.0,0,0,0,0.0,-0.1120610237121582,4.975870609283447
1762165908.65025,-4.0,-5.0,-985.0,0,0,0,0.0,-0.1120610237121582,4.975870609283447
1762165908.762317,-12.0,-8.0,-1008.0,0,0,0,0.0,-0.1120610237121582,4.975870609283447
1762165908.87616,5.0,-24.0,-1009.0,0,0,0,0.0,-0.1120610237121582,4.975870609283447
1762165908.989076,-6.0,-28.0,-1017.0,0,0,0,0.0,-0.1120610237121582,4.975870609283447
1762165909.101586,-6.0,-3.0,-961.0,0,0,0,0.0,-0.1120610237121582,4.975870609283447
1762165909.2143714,-20.0,4.0,-980.0,0,0,0,0.0,-0.1120610237121582,4.975870609283447
1762165909.326823,0.0,-7.0,-969.0,0,0,0,0.0,-0.1120610237121582,4.975870609283447
1762165909.4409974,-17.0,-26.0,-982.0,0,0,0,0.0,-0.1120610237121582,4.975870609283447
1762165909.5546556,-5.0,-4.0,-986.0,0,0,0,0.0,-0.1120610237121582,4.975870609283447
1762165909.6678796,-10.0,-26.0,-998.0,0,0,0,0.0,-0.1120610237121582,4.975870609283447
1762165909.7808914,-3.0,14.0,-985.0,0,0,0,0.0,-0.1120610237121582,4.975870609283447
1762165909.8814678,-16.0,-4.0,-1017.0,0,0,0,0.0,-0.1120610237121582,4.975870609283447
1762165909.9909196,-17.0,-12.0,-1025.0,0,0,0,0.0,-0.1120610237121582,4.975870609283447
1762165910.103076,-21.0,0.0,-989.0,0,0,0,0.0,-0.1120610237121582,4.975870609283447
1762165910.2159202,-10.0,-12.0,-988.0,0,0,0,0.0,-0.1120610237121582,4.975870609283447
1762165910.328473,11.0,-21.0,-988.0,0,0,0,0.0,-0.1120610237121582,4.975870609283447
1762165910.4425142,-22.0,-6.0,-1012.0,0,0,0,0.0,-0.1120610237121582,4.975870609283447
1762165910.5444505,-10.0,-13.0,-998.0,0,0,0,0.0,-0.1120610237121582,4.975870609283447
1762165910.659787,1.0,-21.0,-1004.0,0,0,0,0.0,-0.1120610237121582,4.975870609283447
1762165910.7741938,-31.0,-8.0,-994.0,0,0,0,0.0,-0.1120610237121582,4.975870609283447
1762165910.8867526,19.0,-23.0,-1014.0,0,0,0,0.0,-0.1120610237121582,4.975870609283447
1762165910.9926603,-11.0,-1.0,-984.0,0,0,0,0.0,-0.1120610237121582,4.975870609283447
1762165911.1053855,-29.0,-25.0,-1004.0,-1,0,0,-0.11272525787353516,-0.1120610237121582,4.975870609283447
1762165911.217803,-11.0,-5.0,-994.0,-1,0,0,-0.2251427173614502,-0.1120610237121582,4.975870609283447
1762165911.331115,-16.0,29.0,-1016.0,-2,0,0,-0.4517667293548584,-0.1120610237121582,4.975870609283447
1762165911.4442801,-25.0,-2.0,-1008.0,-2,0,0,-0.6780970096588135,-0.1120610237121582,4.975870609283447
1762165911.5577228,-37.0,-32.0,-1018.0,-2,0,0,-0.904982328414917,-0.1120610237121582,4.975870609283447
1762165911.6708016,-33.0,8.0,-1010.0,-2,0,0,-1.1311399936676025,-0.1120610237121582,4.975870609283447
1762165911.7832,-28.0,-1.0,-1014.0,-2,0,0,-1.3559367656707764,-0.1120610237121582,4.975870609283447
1762165911.8950212,-26.0,-18.0,-989.0,-2,0,0,-1.5795791149139404,-0.1120610237121582,4.975870609283447
1762165912.0064015,-10.0,-30.0,-979.0,-2,0,0,-1.802339792251587,-0.1120610237121582,4.975870609283447
1762165912.107627,-18.0,-6.0,-994.0,-2,0,0,-2.0047905445098877,-0.1120610237121582,4.975870609283447
1762165912.2202444,-18.0,-16.0,-984.0,-2,0,0,-2.23002552986145,-0.1120610237121582,4.975870609283447
1762165912.333805,-10.0,9.0,-1008.0,-2,0,0,-2.4571468830108643,-0.1120610237121582,4.975870609283447
1762165912.4466913,-16.0,-25.0,-1016.0,-2,0,0,-2.6829192638397217,-0.1120610237121582,4.975870609283447
1762165912.5598395,-14.0,-7.0,-994.0,-2,0,0,-2.9092156887054443,-0.1120610237121582,4.975870609283447
1762165912.6729975,-11.0,-4.0,-1002.0,-2,0,0,-3.1355316638946533,-0.1120610237121582,4.975870609283447
1762165912.7859488,-9.0,-1.0,-981.0,-2,0,0,-3.3614342212677,-0.1120610237121582,4.975870609283447
1762165912.8988914,-27.0,-11.0,-978.0,-2,0,0,-3.5873196125030518,-0.1120610237121582,4.975870609283447
1762165913.0108824,8.0,-15.0,-988.0,-2,0,0,-3.8113014698028564,-0.1120610237121582,4.975870609283447
1762165913.1256883,-62.0,-7.0,-1028.0,-1,0,0,-3.926107406616211,-0.1120610237121582,4.975870609283447
1762165913.2278364,12.0,-17.0,-1015.0,0,0,0,-3.926107406616211,-0.1120610237121582,4.975870609283447
1762165913.332284,6.0,1.0,-1000.0,0,0,0,-3.926107406616211,-0.1120610237121582,4.975870609283447
1762165913.4421973,-12.0,-6.0,-1009.0,0,0,0,-3.926107406616211,-0.1120610237121582,4.975870609283447
1762165913.5552824,0.0,-31.0,-1000.0,0,0,0,-3.926107406616211,-0.1120610237121582,4.975870609283447
1762165913.6582582,-8.0,4.0,-986.0,0,0,0,-3.926107406616211,-0.1120610237121582,4.975870609283447
1762165913.7607734,2.0,-34.0,-999.0,0,0,0,-3.926107406616211,-0.1120610237121582,4.975870609283447
1762165913.8618944,-22.0,-24.0,-1004.0,0,0,0,-3.926107406616211,-0.1120610237121582,4.975870609283447
1762165913.977094,-5.0,-13.0,-1032.0,0,0,0,-3.926107406616211,-0.1120610237121582,4.975870609283447
1762165914.078629,3.0,7.0,-987.0,0,0,0,-3.926107406616211,-0.1120610237121582,4.975870609283447
1762165914.1939118,12.0,14.0,-1021.0,0,0,0,-3.926107406616211,-0.1120610237121582,4.975870609283447
1762165914.2952092,-11.0,-29.0,-968.0,0,0,0,-3.926107406616211,-0.1120610237121582,4.975870609283447
1762165914.3973272,-10.0,7.0,-1024.0,0,0,0,-3.926107406616211,-0.1120610237121582,4.975870609283447
1762165914.5112379,-11.0,0.0,-1010.0,0,0,0,-3.926107406616211,-0.1120610237121582,4.975870609283447
1762165914.6254904,10.0,6.0,-987.0,0,0,0,-3.926107406616211,-0.1120610237121582,4.975870609283447
1762165914.7418501,6.0,-32.0,-1000.0,0,0,0,-3.926107406616211,-0.1120610237121582,4.975870609283447
1762165914.8549688,-3.0,-13.0,-1004.0,0,0,0,-3.926107406616211,-0.1120610237121582,4.975870609283447
1762165914.9684947,2.0,14.0,-1019.0,0,0,0,-3.926107406616211,-0.1120610237121582,4.975870609283447
1762165915.0818617,9.0,19.0,-1013.0,0,0,0,-3.926107406616211,-0.1120610237121582,4.975870609283447
1762165915.182525,12.0,-30.0,-970.0,0,0,0,-3.926107406616211,-0.1120610237121582,4.975870609283447
1762165915.2908182,4.0,-42.0,-995.0,0,0,0,-3.926107406616211,-0.1120610237121582,4.975870609283447
1762165915.4038026,18.0,13.0,-1019.0,0,0,0,-3.926107406616211,-0.1120610237121582,4.975870609283447
1762165915.517041,5.0,-22.0,-990.0,0,0,0,-3.926107406616211,-0.1120610237121582,4.975870609283447
1762165915.6294773,9.0,-16.0,-986.0,0,0,0,-3.926107406616211,-0.1120610237121582,4.975870609283447
1762165915.7411473,18.0,-2.0,-1018.0,0,0,0,-3.926107406616211,-0.1120610237121582,4.975870609283447
1762165915.8566377,0.0,22.0,-1008.0,0,0,0,-3.926107406616211,-0.1120610237121582,4.975870609283447
1762165915.968353,29.0,7.0,-984.0,0,0,0,-3.926107406616211,-0.1120610237121582,4.975870609283447
1762165916.081377,-1.0,-7.0,-1040.0,0,0,0,-3.926107406616211,-0.1120610237121582,4.975870609283447
1762165916.193919,-1.0,28.0,-1025.0,0,0,0,-3.926107406616211,-0.1120610237121582,4.975870609283447
1762165916.309431,9.0,-9.0,-1013.0,0,0,0,-3.926107406616211,-0.1120610237121582,4.975870609283447
1762165916.4212701,15.0,-13.0,-1012.0,0,0,0,-3.926107406616211,-0.1120610237121582,4.975870609283447
1762165916.5343604,1.0,1.0,-990.0,0,0,0,-3.926107406616211,-0.1120610237121582,4.975870609283447
1762165916.6457717,0.0,-9.0,-980.0,0,0,0,-3.926107406616211,-0.1120610237121582,4.975870609283447
1762165916.7574406,1.0,0.0,-1005.0,0,0,0,-3.926107406616211,-0.1120610237121582,4.975870609283447
1762165916.873902,6.0,-17.0,-986.0,0,0,0,-3.926107406616211,-0.1120610237121582,4.975870609283447
1762165916.98642,0.0,-29.0,-988.0,0,0,0,-3.926107406616211,-0.1120610237121582,4.975870609283447
1762165917.098373,-7.0,11.0,-993.0,0,0,0,-3.926107406616211,-0.1120610237121582,4.975870609283447
1762165917.211788,4.0,-10.0,-988.0,0,0,0,-3.926107406616211,-0.1120610237121582,4.975870609283447
1762165917.326782,14.0,0.0,-1003.0,0,0,0,-3.926107406616211,-0.1120610237121582,4.975870609283447
1762165917.4402792,1.0,0.0,-995.0,0,0,0,-3.926107406616211,-0.1120610237121582,4.975870609283447
1762165917.5533092,10.0,10.0,-1001.0,0,0,0,-3.926107406616211,-0.1120610237121582,4.975870609283447
1762165917.6662185,12.0,37.0,-1008.0,0,0,0,-3.926107406616211,-0.1120610237121582,4.975870609283447
1762165917.7796533,-14.0,-20.0,-1009.0,0,0,0,-3.926107406616211,-0.1120610237121582,4.975870609283447
1762165917.8922055,-17.0,-16.0,-1040.0,0,0,0,-3.926107406616211,-0.1120610237121582,4.975870609283447
1762165918.0048642,-12.0,-27.0,-1024.0,0,0,0,-3.926107406616211,-0.1120610237121582,4.975870609283447
1762165918.1167302,-15.0,-28.0,-1021.0,0,0,0,-3.926107406616211,-0.1120610237121582,4.975870609283447
1762165918.2292478,12.0,-12.0,-994.0,0,0,0,-3.926107406616211,-0.1120610237121582,4.975870609283447
1762165918.3419683,31.0,-7.0,-991.0,0,0,0,-3.926107406616211,-0.1120610237121582,4.975870609283447
1762165918.4566061,-7.0,-23.0,-1012.0,0,0,0,-3.926107406616211,-0.1120610237121582,4.975870609283447
1762165918.5678754,-23.0,-3.0,-1016.0,0,0,0,-3.926107406616211,-0.1120610237121582,4.975870609283447
1762165918.6809065,6.0,-27.0,-989.0,0,0,0,-3.926107406616211,-0.1120610237121582,4.975870609283447
1762165918.793064,18.0,-7.0,-968.0,0,0,0,-3.926107406616211,-0.1120610237121582,4.975870609283447
1762165918.9060907,4.0,-19.0,-986.0,0,0,0,-3.926107406616211,-0.1120610237121582,4.975870609283447
1762165919.007696,-23.0,2.0,-980.0,0,0,0,-3.926107406616211,-0.1120610237121582,4.975870609283447
1762165919.1199045,-21.0,-4.0,-999.0,0,0,0,-3.926107406616211,-0.1120610237121582,4.975870609283447
1762165919.2334867,-11.0,12.0,-1005.0,0,0,0,-3.926107406616211,-0.1120610237121582,4.975870609283447
1762165919.3467085,0.0,20.0,-986.0,0,0,0,-3.926107406616211,-0.1120610237121582,4.975870609283447
1762165919.4602897,3.0,8.0,-978.0,0,0,0,-3.926107406616211,-0.1120610237121582,4.975870609283447
1762165919.5726469,-13.0,-8.0,-1005.0,0,0,0,-3.926107406616211,-0.1120610237121582,4.975870609283447
1762165919.6851833,-10.0,-15.0,-996.0,0,0,0,-3.926107406616211,-0.1120610237121582,4.975870609283447
1762165919.796728,-18.0,-13.0,-971.0,0,0,0,-3.926107406616211,-0.1120610237121582,4.975870609283447
1762165919.9088423,-5.0,8.0,-1011.0,0,0,0,-3.926107406616211,-0.1120610237121582,4.975870609283447
1762165920.0246282,-10.0,-20.0,-1000.0,0,0,0,-3.926107406616211,-0.1120610237121582,4.975870609283447
1762165920.1366355,3.0,-12.0,-1002.0,0,0,0,-3.926107406616211,-0.1120610237121582,4.975870609283447
1762165920.248839,19.0,-23.0,-1017.0,0,0,0,-3.926107406616211,-0.1120610237121582,4.975870609283447
1762165920.3614647,0.0,-1.0,-996.0,0,0,0,-3.926107406616211,-0.1120610237121582,4.975870609283447
1762165920.4735177,5.0,5.0,-999.0,0,0,0,-3.926107406616211,-0.1120610237121582,4.975870609283447
1762165920.588869,7.0,13.0,-1013.0,0,0,0,-3.926107406616211,-0.1120610237121582,4.975870609283447
1762165920.701408,6.0,-3.0,-998.0,0,0,0,-3.926107406616211,-0.1120610237121582,4.975870609283447
1762165920.8147469,-16.0,-6.0,-986.0,0,0,0,-3.926107406616211,-0.1120610237121582,4.975870609283447
1762165920.9268284,1.0,-3.0,-989.0,0,0,0,-3.926107406616211,-0.1120610237121582,4.975870609283447
1762165921.0435843,-7.0,-14.0,-1001.0,0,0,0,-3.926107406616211,-0.1120610237121582,4.975870609283447
1762165921.1556954,-7.0,6.0,-985.0,0,0,0,-3.926107406616211,-0.1120610237121582,4.975870609283447
1762165921.2688806,-14.0,6.0,-1014.0,0,0,0,-3.926107406616211,-0.1120610237121582,4.975870609283447
1762165921.3812068,-11.0,-7.0,-995.0,0,0,0,-3.926107406616211,-0.1120610237121582,4.975870609283447
1762165921.4943001,-11.0,-8.0,-999.0,0,0,0,-3.926107406616211,-0.1120610237121582,4.975870609283447
1762165921.610293,-8.0,10.0,-997.0,0,0,0,-3.926107406616211,-0.1120610237121582,4.975870609283447
1762165921.7223566,-14.0,-10.0,-988.0,0,0,0,-3.926107406616211,-0.1120610237121582,4.975870609283447
1762165921.8350062,-18.0,-14.0,-986.0,0,0,0,-3.926107406616211,-0.1120610237121582,4.975870609283447
1762165921.948592,-16.0,9.0,-989.0,0,0,0,-3.926107406616211,-0.1120610237121582,4.975870609283447
1762165922.061998,-2.0,-2.0,-1003.0,0,0,0,-3.926107406616211,-0.1120610237121582,4.975870609283447
1762165922.1742177,-10.0,-6.0,-1017.0,0,0,0,-3.926107406616211,-0.1120610237121582,4.975870609283447
1762165922.2863166,-12.0,-24.0,-1003.0,0,0,0,-3.926107406616211,-0.1120610237121582,4.975870609283447
1762165922.3986511,1.0,-5.0,-961.0,0,0,0,-3.926107406616211,-0.1120610237121582,4.975870609283447
1762165922.5104663,-4.0,-6.0,-1010.0,0,0,0,-3.926107406616211,-0.1120610237121582,4.975870609283447
1762165922.6113932,-19.0,-13.0,-992.0,0,0,0,-3.926107406616211,-0.1120610237121582,4.975870609283447
1762165922.723907,-5.0,-16.0,-994.0,0,0,0,-3.926107406616211,-0.1120610237121582,4.975870609283447
1762165922.8359718,-8.0,9.0,-1003.0,0,0,0,-3.926107406616211,-0.1120610237121582,4.975870609283447
1762165922.9475527,-9.0,14.0,-988.0,0,0,0,-3.926107406616211,-0.1120610237121582,4.975870609283447
1762165923.0604844,-12.0,-22.0,-978.0,0,0,0,-3.926107406616211,-0.1120610237121582,4.975870609283447
1762165923.175324,-17.0,-25.0,-995.0,0,0,0,-3.926107406616211,-0.1120610237121582,4.975870609283447
1762165923.2773767,2.0,-15.0,-1033.0,0,0,0,-3.926107406616211,-0.1120610237121582,4.975870609283447
1762165923.39258,-9.0,28.0,-977.0,0,0,0,-3.926107406616211,-0.1120610237121582,4.975870609283447
1762165923.504243,-11.0,-16.0,-998.0,0,0,0,-3.926107406616211,-0.1120610237121582,4.975870609283447
1762165923.6173174,-3.0,-11.0,-1015.0,0,0,0,-3.926107406616211,-0.1120610237121582,4.975870609283447
1762165923.7277877,1.0,0.0,-1001.0,0,1,0,-3.926107406616211,-0.001590728759765625,4.975870609283447
1762165923.828688,7.0,-3.0,-986.0,0,2,0,-3.926107406616211,0.2002096176147461,4.975870609283447
1762165923.94387,-3.0,24.0,-975.0,0,2,0,-3.926107406616211,0.4305739402770996,4.975870609283447
1762165924.0456896,19.0,0.0,-1013.0,0,2,0,-3.926107406616211,0.6342129707336426,4.975870609283447
1762165924.160712,-4.0,12.0,-989.0,0,2,0,-3.926107406616211,0.8642578125,4.975870609283447
1762165924.2622058,-8.0,-2.0,-1001.0,0,2,0,-3.926107406616211,1.0672454833984375,4.975870609283447
1762165924.377576,-13.0,9.0,-1006.0,0,2,0,-3.926107406616211,1.2979860305786133,4.975870609283447
1762165924.4788032,12.0,31.0,-993.0,0,2,0,-3.926107406616211,1.5004401206970215,4.975870609283447
1762165924.593351,-13.0,-11.0,-1002.0,0,2,0,-3.926107406616211,1.7295355796813965,4.975870609283447
1762165924.7061803,-7.0,3.0,-1005.0,0,2,0,-3.926107406616211,1.9551944732666016,4.975870609283447
1762165924.8090742,0.0,20.0,-995.0,0,2,0,-3.926107406616211,2.160982131958008,4.975870609283447
1762165924.9218206,-2.0,-1.0,-981.0,0,2,0,-3.926107406616211,2.386475086212158,4.975870609283447
1762165925.0352468,-4.0,10.0,-968.0,0,2,0,-3.926107406616211,2.6133275032043457,4.975870609283447
1762165925.147994,-9.0,14.0,-970.0,0,2,0,-3.926107406616211,2.8388218879699707,4.975870609283447
1762165925.2601533,0.0,20.0,-983.0,0,2,0,-3.926107406616211,3.063140392303467,4.975870609283447
1762165925.3747122,-3.0,-18.0,-1022.0,0,2,0,-3.926107406616211,3.2922582626342773,4.975870609283447
1762165925.4877958,-11.0,58.0,-928.0,0,1,0,-3.926107406616211,3.405341863632202,4.975870609283447
1762165925.588683,3.0,9.0,-1005.0,0,0,0,-3.926107406616211,3.405341863632202,4.975870609283447
1762165925.6892757,-19.0,-24.0,-1016.0,0,0,0,-3.926107406616211,3.405341863632202,4.975870609283447
1762165925.7950366,-14.0,-11.0,-997.0,0,0,0,-3.926107406616211,3.405341863632202,4.975870609283447
1762165925.9070253,1.0,-2.0,-1016.0,0,0,0,-3.926107406616211,3.405341863632202,4.975870609283447
1762165926.0205104,3.0,1.0,-996.0,0,0,0,-3.926107406616211,3.405341863632202,4.975870609283447
1762165926.1278749,1.0,4.0,-997.0,0,0,0,-3.926107406616211,3.405341863632202,4.975870609283447
1762165926.228679,-8.0,-10.0,-996.0,0,0,0,-3.926107406616211,3.405341863632202,4.975870609283447
1762165926.3441746,-5.0,-5.0,-1029.0,0,0,0,-3.926107406616211,3.405341863632202,4.975870609283447
1762165926.460195,-8.0,3.0,-1018.0,0,0,0,-3.926107406616211,3.405341863632202,4.975870609283447
1762165926.5607553,0.0,12.0,-1011.0,0,0,0,-3.926107406616211,3.405341863632202,4.975870609283447
1762165926.6620445,-3.0,-2.0,-989.0,0,0,0,-3.926107406616211,3.405341863632202,4.975870609283447
1762165926.765237,-24.0,7.0,-991.0,0,0,0,-3.926107406616211,3.405341863632202,4.975870609283447
1762165926.878123,-5.0,7.0,-1004.0,0,0,0,-3.926107406616211,3.405341863632202,4.975870609283447
1762165926.9911335,-14.0,0.0,-991.0,0,0,0,-3.926107406616211,3.405341863632202,4.975870609283447
1762165927.1042094,-9.0,3.0,-1016.0,0,0,0,-3.926107406616211,3.405341863632202,4.975870609283447
1762165927.217094,-10.0,-21.0,-1005.0,0,0,0,-3.926107406616211,3.405341863632202,4.975870609283447
1762165927.3305664,-11.0,-25.0,-1015.0,0,0,0,-3.926107406616211,3.405341863632202,4.975870609283447
1762165927.4426932,-17.0,7.0,-986.0,0,0,0,-3.926107406616211,3.405341863632202,4.975870609283447
1762165927.5557156,7.0,-24.0,-1016.0,0,0,0,-3.926107406616211,3.405341863632202,4.975870609283447
1762165927.668416,-16.0,-30.0,-1004.0,0,0,0,-3.926107406616211,3.405341863632202,4.975870609283447
1762165927.7815151,-6.0,6.0,-987.0,0,0,0,-3.926107406616211,3.405341863632202,4.975870609283447
1762165927.8973296,-3.0,-52.0,-1030.0,0,0,0,-3.926107406616211,3.405341863632202,4.975870609283447
1762165928.0073187,2.0,11.0,-1007.0,0,0,0,-3.926107406616211,3.405341863632202,4.975870609283447
1762165928.1193707,-16.0,-30.0,-1004.0,0,0,0,-3.926107406616211,3.405341863632202,4.975870609283447
1762165928.231533,-15.0,-28.0,-1029.0,0,0,0,-3.926107406616211,3.405341863632202,4.975870609283447
1762165928.3429823,-18.0,0.0,-988.0,0,0,0,-3.926107406616211,3.405341863632202,4.975870609283447
1762165928.4444838,-11.0,-6.0,-1009.0,0,0,0,-3.926107406616211,3.405341863632202,4.975870609283447
1762165928.5556479,-4.0,5.0,-1030.0,0,0,0,-3.926107406616211,3.405341863632202,4.975870609283447
1762165928.667444,10.0,-17.0,-1006.0,0,0,0,-3.926107406616211,3.405341863632202,4.975870609283447
1762165928.778909,-11.0,3.0,-987.0,0,0,0,-3.926107406616211,3.405341863632202,4.975870609283447
1762165928.8894248,-7.0,-32.0,-998.0,0,0,0,-3.926107406616211,3.405341863632202,4.975870609283447
1762165928.9937901,-23.0,-10.0,-1001.0,0,0,0,-3.926107406616211,3.405341863632202,4.975870609283447
1762165929.1044142,-33.0,-32.0,-1010.0,0,0,0,-3.926107406616211,3.405341863632202,4.975870609283447
1762165929.2152915,-11.0,1.0,-1008.0,0,0,0,-3.926107406616211,3.405341863632202,4.975870609283447
1762165929.325862,-13.0,-21.0,-1012.0,0,0,0,-3.926107406616211,3.405341863632202,4.975870609283447
1762165929.4373693,-2.0,6.0,-1005.0,0,0,0,-3.926107406616211,3.405341863632202,4.975870609283447
1762165929.541755,-17.0,-19.0,-981.0,0,0,0,-3.926107406616211,3.405341863632202,4.975870609283447
1762165929.652879,-29.0,-4.0,-982.0,0,0,0,-3.926107406616211,3.405341863632202,4.975870609283447
1762165929.7643955,-17.0,-13.0,-1032.0,0,0,0,-3.926107406616211,3.405341863632202,4.975870609283447
1762165929.8752284,1.0,-15.0,-996.0,0,0,0,-3.926107406616211,3.405341863632202,4.975870609283447
1762165929.985541,-27.0,-19.0,-1008.0,0,0,0,-3.926107406616211,3.405341863632202,4.975870609283447
1762165930.0903766,-5.0,-17.0,-1004.0,0,0,0,-3.926107406616211,3.405341863632202,4.975870609283447
1762165930.2019446,-30.0,10.0,-1021.0,0,0,0,-3.926107406616211,3.405341863632202,4.975870609283447
1762165930.3131275,-4.0,-3.0,-985.0,0,0,0,-3.926107406616211,3.405341863632202,4.975870609283447
1762165930.4241524,-5.0,-10.0,-987.0,0,0,0,-3.926107406616211,3.405341863632202,4.975870609283447
1762165930.5346358,-23.0,-7.0,-1018.0,0,0,0,-3.926107406616211,3.405341863632202,4.975870609283447
1762165930.639135,-25.0,-1.0,-1006.0,0,0,0,-3.926107406616211,3.405341863632202,4.975870609283447
1762165930.7495804,-31.0,11.0,-1009.0,0,0,0,-3.926107406616211,3.405341863632202,4.975870609283447
1762165930.8607244,-2.0,-23.0,-982.0,0,0,0,-3.926107406616211,3.405341863632202,4.975870609283447
1762165930.9712117,-10.0,4.0,-990.0,0,0,0,-3.926107406616211,3.405341863632202,4.975870609283447
1762165931.0820138,-18.0,-4.0,-981.0,0,0,0,-3.926107406616211,3.405341863632202,4.975870609283447
1762165931.189152,-30.0,0.0,-994.0,0,0,0,-3.926107406616211,3.405341863632202,4.975870609283447
1762165931.3002386,-39.0,24.0,-1003.0,0,0,0,-3.926107406616211,3.405341863632202,4.975870609283447
1762165931.4115734,-16.0,-21.0,-979.0,0,0,0,-3.926107406616211,3.405341863632202,4.975870609283447
1762165931.5225074,-32.0,-12.0,-1001.0,0,0,0,-3.926107406616211,3.405341863632202,4.975870609283447
1762165931.6276774,-17.0,29.0,-986.0,0,0,0,-3.926107406616211,3.405341863632202,4.975870609283447
1762165931.7376704,-23.0,-14.0,-988.0,0,0,0,-3.926107406616211,3.405341863632202,4.975870609283447
1762165931.8481011,2.0,1.0,-1000.0,0,0,0,-3.926107406616211,3.405341863632202,4.975870609283447
1762165931.9591308,-19.0,18.0,-1005.0,0,0,0,-3.926107406616211,3.405341863632202,4.975870609283447
1762165932.0695724,-18.0,0.0,-1017.0,0,0,0,-3.926107406616211,3.405341863632202,4.975870609283447
1762165932.1757271,-13.0,-10.0,-1039.0,0,0,0,-3.926107406616211,3.405341863632202,4.975870609283447
1762165932.2866898,-20.0,-8.0,-975.0,0,0,0,-3.926107406616211,3.405341863632202,4.975870609283447
1762165932.3978984,-15.0,-29.0,-992.0,0,0,0,-3.926107406616211,3.405341863632202,4.975870609283447
1762165932.5089176,-4.0,-12.0,-986.0,0,0,0,-3.926107406616211,3.405341863632202,4.975870609283447
1762165932.6197348,-18.0,-22.0,-1001.0,0,0,0,-3.926107406616211,3.405341863632202,4.975870609283447
1762165932.7248447,-14.0,9.0,-983.0,0,0,0,-3.926107406616211,3.405341863632202,4.975870609283447
1762165932.8360045,-16.0,-33.0,-1009.0,0,0,0,-3.926107406616211,3.405341863632202,4.975870609283447
1762165932.9465992,-13.0,-4.0,-1012.0,0,0,0,-3.926107406616211,3.405341863632202,4.975870609283447
1762165933.057745,-11.0,-21.0,-1001.0,0,0,0,-3.926107406616211,3.405341863632202,4.975870609283447
1762165933.1682887,-17.0,0.0,-1008.0,0,0,0,-3.926107406616211,3.405341863632202,4.975870609283447
1762165933.2745697,-29.0,31.0,-1011.0,0,0,0,-3.926107406616211,3.405341863632202,4.975870609283447
1762165933.3857305,-10.0,-21.0,-1000.0,0,0,0,-3.926107406616211,3.405341863632202,4.975870609283447
1762165933.49689,-30.0,14.0,-1030.0,0,0,0,-3.926107406616211,3.405341863632202,4.975870609283447
1762165933.608117,-48.0,25.0,-1009.0,0,0,0,-3.926107406616211,3.405341863632202,4.975870609283447
1762165933.7186325,-19.0,-19.0,-1018.0,0,0,0,-3.926107406616211,3.405341863632202,4.975870609283447
1762165933.8241718,-40.0,-19.0,-988.0,0,0,0,-3.926107406616211,3.405341863632202,4.975870609283447
1762165933.9360425,-19.0,-3.0,-1007.0,0,0,0,-3.926107406616211,3.405341863632202,4.975870609283447
1762165934.0465474,-16.0,-35.0,-1006.0,0,0,0,-3.926107406616211,3.405341863632202,4.975870609283447
1762165934.1574268,-48.0,-9.0,-1007.0,0,0,0,-3.926107406616211,3.405341863632202,4.975870609283447
1762165934.2680988,-30.0,-35.0,-994.0,0,0,0,-3.926107406616211,3.405341863632202,4.975870609283447
1762165934.372446,-12.0,13.0,-996.0,0,0,0,-3.926107406616211,3.405341863632202,4.975870609283447
1762165934.483756,-6.0,-2.0,-971.0,0,0,0,-3.926107406616211,3.405341863632202,4.975870609283447
1762165934.5946667,-16.0,-5.0,-1009.0,0,0,0,-3.926107406616211,3.405341863632202,4.975870609283447
1762165934.7054176,-14.0,2.0,-974.0,0,0,0,-3.926107406616211,3.405341863632202,4.975870609283447
1762165934.8103447,-28.0,-9.0,-998.0,0,0,0,-3.926107406616211,3.405341863632202,4.975870609283447
1762165934.92193,-13.0,-14.0,-1020.0,0,0,0,-3.926107406616211,3.405341863632202,4.975870609283447
1762165935.0322523,-16.0,-14.0,-1034.0,0,0,0,-3.926107406616211,3.405341863632202,4.975870609283447
1762165935.1426005,-18.0,-6.0,-991.0,0,0,0,-3.926107406616211,3.405341863632202,4.975870609283447
1762165935.253739,-9.0,-10.0,-1007.0,0,0,0,-3.926107406616211,3.405341863632202,4.975870609283447
1762165935.3591073,-9.0,-22.0,-991.0,0,0,0,-3.926107406616211,3.405341863632202,4.975870609283447
1762165935.4701457,-9.0,-23.0,-999.0,0,0,0,-3.926107406616211,3.405341863632202,4.975870609283447
1762165935.580691,-33.0,1.0,-993.0,0,0,0,-3.926107406616211,3.405341863632202,4.975870609283447
1762165935.6948075,-3.0,-12.0,-1010.0,0,0,0,-3.926107406616211,3.405341863632202,4.975870609283447
1762165935.808386,-13.0,-26.0,-1032.0,0,0,0,-3.926107406616211,3.405341863632202,4.975870609283447
1762165935.923751,-27.0,-10.0,-987.0,0,0,0,-3.926107406616211,3.405341863632202,4.975870609283447
1762165936.0348434,-36.0,-15.0,-1005.0,0,0,0,-3.926107406616211,3.405341863632202,4.975870609283447
1762165936.1453452,0.0,3.0,-1002.0,1,0,0,-3.815605640411377,3.405341863632202,4.975870609283447
1762165936.2470903,-9.0,-19.0,-1014.0,1,0,0,-3.713860511779785,3.405341863632202,4.975870609283447
1762165936.3600874,-9.0,-26.0,-991.0,2,0,0,-3.4878664016723633,3.405341863632202,4.975870609283447
1762165936.4617286,-11.0,-11.0,-1015.0,2,0,0,-3.2845840454101562,3.405341863632202,4.975870609283447
1762165936.5769274,-9.0,8.0,-994.0,2,0,0,-3.0541863441467285,3.405341863632202,4.975870609283447
1762165936.6783807,-13.0,38.0,-1037.0,2,0,0,-2.8512797355651855,3.405341863632202,4.975870609283447
1762165936.7938006,-16.0,8.0,-989.0,2,0,0,-2.6204400062561035,3.405341863632202,4.975870609283447
1762165936.894683,-9.0,-9.0,-994.0,2,0,0,-2.418675422668457,3.405341863632202,4.975870609283447
1762165937.008529,2.0,6.0,-1020.0,2,0,0,-2.190983295440674,3.405341863632202,4.975870609283447
1762165937.1203456,9.0,5.0,-985.0,2,0,0,-1.9673500061035156,3.405341863632202,4.975870609283447
1762165937.2307985,-7.0,-6.0,-993.0,2,0,0,-1.7464442253112793,3.405341863632202,4.975870609283447
1762165937.3418472,17.0,-16.0,-1020.0,2,0,0,-1.5243468284606934,3.405341863632202,4.975870609283447
1762165937.4445934,-2.0,-18.0,-1008.0,2,0,0,-1.3188543319702148,3.405341863632202,4.975870609283447
1762165937.555945,38.0,-27.0,-994.0,2,0,0,-1.096151351928711,3.405341863632202,4.975870609283447
1762165937.6675153,1.0,14.0,-1045.0,2,0,0,-0.8730106353759766,3.405341863632202,4.975870609283447
1762165937.7789683,6.0,-33.0,-1018.0,1,0,0,-0.7615575790405273,3.405341863632202,4.975870609283447
1762165937.8903854,-12.0,-29.0,-1008.0,1,0,0,-0.6501405239105225,3.405341863632202,4.975870609283447
1762165937.9932404,-7.0,-25.0,-1005.0,2,0,0,-0.4444305896759033,3.405341863632202,4.975870609283447
1762165938.1046247,19.0,-2.0,-933.0,2,0,0,-0.22166180610656738,3.405341863632202,4.975870609283447
1762165938.2157733,-17.0,-11.0,-1010.0,1,0,0,-0.11051321029663086,3.405341863632202,4.975870609283447
1762165938.3307748,-7.0,-39.0,-998.0,0,0,0,-0.11051321029663086,3.405341863632202,4.975870609283447
1762165938.4398553,-5.0,-19.0,-998.0,0,0,0,-0.11051321029663086,3.405341863632202,4.975870609283447
1762165938.5430293,-15.0,-13.0,-1011.0,0,0,0,-0.11051321029663086,3.405341863632202,4.975870609283447
1762165938.6543372,3.0,-16.0,-1032.0,0,0,0,-0.11051321029663086,3.405341863632202,4.975870609283447
1762165938.7610052,-20.0,-7.0,-1011.0,0,0,0,-0.11051321029663086,3.405341863632202,4.975870609283447
1762165938.8618898,-5.0,-5.0,-1010.0,0,0,0,-0.11051321029663086,3.405341863632202,4.975870609283447
1762165938.9638526,13.0,-34.0,-995.0,0,0,0,-0.11051321029663086,3.405341863632202,4.975870609283447
1762165939.064327,-1.0,-13.0,-1006.0,0,0,0,-0.11051321029663086,3.405341863632202,4.975870609283447
1762165939.170304,-1.0,1.0,-1028.0,0,0,0,-0.11051321029663086,3.405341863632202,4.975870609283447
1762165939.2771626,-8.0,-19.0,-1013.0,0,0,0,-0.11051321029663086,3.405341863632202,4.975870609283447
1762165939.3785033,-38.0,4.0,-1031.0,0,0,0,-0.11051321029663086,3.405341863632202,4.975870609283447
1762165939.4787564,-3.0,-6.0,-1008.0,0,0,0,-0.11051321029663086,3.405341863632202,4.975870609283447
1762165939.593725,-8.0,1.0,-1002.0,0,0,0,-0.11051321029663086,3.405341863632202,4.975870609283447
1762165939.7041087,-12.0,-4.0,-1002.0,0,0,0,-0.11051321029663086,3.405341863632202,4.975870609283447
1762165939.814879,0.0,0.0,-979.0,0,0,0,-0.11051321029663086,3.405341863632202,4.975870609283447
1762165939.9257522,-14.0,0.0,-988.0,0,0,0,-0.11051321029663086,3.405341863632202,4.975870609283447
1762165940.0356572,3.0,-8.0,-1003.0,0,0,0,-0.11051321029663086,3.405341863632202,4.975870609283447
1762165940.1418278,5.0,6.0,-994.0,0,0,0,-0.11051321029663086,3.405341863632202,4.975870609283447
1762165940.252997,-6.0,0.0,-1008.0,0,0,0,-0.11051321029663086,3.405341863632202,4.975870609283447
1762165940.3634171,2.0,-1.0,-1002.0,0,0,0,-0.11051321029663086,3.405341863632202,4.975870609283447
1762165940.4741366,7.0,-2.0,-987.0,0,0,0,-0.11051321029663086,3.405341863632202,4.975870609283447
1762165940.586046,-1.0,-6.0,-1001.0,0,0,0,-0.11051321029663086,3.405341863632202,4.975870609283447
1762165940.6919744,-9.0,-1.0,-1003.0,0,0,0,-0.11051321029663086,3.405341863632202,4.975870609283447
1762165940.8037577,0.0,-4.0,-992.0,0,0,0,-0.11051321029663086,3.405341863632202,4.975870609283447
1762165940.9146311,-5.0,4.0,-997.0,0,0,0,-0.11051321029663086,3.405341863632202,4.975870609283447
1762165941.0257995,12.0,6.0,-983.0,0,0,0,-0.11051321029663086,3.405341863632202,4.975870609283447
1762165941.1367674,10.0,3.0,-1016.0,0,0,0,-0.11051321029663086,3.405341863632202,4.975870609283447
1762165941.240006,17.0,11.0,-991.0,0,0,0,-0.11051321029663086,3.405341863632202,4.975870609283447
1762165941.3510098,5.0,0.0,-972.0,0,0,0,-0.11051321029663086,3.405341863632202,4.975870609283447
1762165941.4618084,31.0,-16.0,-999.0,0,0,0,-0.11051321029663086,3.405341863632202,4.975870609283447
1762165941.5727162,15.0,-22.0,-1008.0,0,0,0,-0.11051321029663086,3.405341863632202,4.975870609283447
1762165941.6755226,-3.0,-21.0,-1019.0,0,0,0,-0.11051321029663086,3.405341863632202,4.975870609283447
1762165941.7904487,2.0,-6.0,-990.0,0,0,0,-0.11051321029663086,3.405341863632202,4.975870609283447
1762165941.9015918,-10.0,4.0,-1016.0,0,0,0,-0.11051321029663086,3.405341863632202,4.975870609283447
1762165942.0130985,-9.0,6.0,-994.0,0,0,0,-0.11051321029663086,3.405341863632202,4.975870609283447
1762165942.1243043,9.0,-5.0,-998.0,0,0,0,-0.11051321029663086,3.405341863632202,4.975870609283447
1762165942.2268407,-13.0,0.0,-997.0,0,0,0,-0.11051321029663086,3.405341863632202,4.975870609283447
1762165942.3372881,-1.0,-14.0,-1008.0,0,0,0,-0.11051321029663086,3.405341863632202,4.975870609283447
1762165942.4484792,13.0,4.0,-1006.0,0,0,0,-0.11051321029663086,3.405341863632202,4.975870609283447
1762165942.559382,-12.0,-12.0,-994.0,0,0,0,-0.11051321029663086,3.405341863632202,4.975870609283447
1762165942.6703885,-8.0,-11.0,-998.0,0,0,0,-0.11051321029663086,3.405341863632202,4.975870609283447
1762165942.7763073,-21.0,-13.0,-1000.0,0,0,0,-0.11051321029663086,3.405341863632202,4.975870609283447
1762165942.8884022,-1.0,-13.0,-985.0,0,0,0,-0.11051321029663086,3.405341863632202,4.975870609283447
1762165942.9994166,-20.0,0.0,-992.0,0,0,0,-0.11051321029663086,3.405341863632202,4.975870609283447
1762165943.1097863,-8.0,2.0,-1002.0,0,0,0,-0.11051321029663086,3.405341863632202,4.975870609283447
1762165943.2204719,-15.0,-8.0,-998.0,0,0,0,-0.11051321029663086,3.405341863632202,4.975870609283447
1762165943.32541,-14.0,-13.0,-996.0,0,0,0,-0.11051321029663086,3.405341863632202,4.975870609283447
1762165943.4357567,-17.0,-16.0,-997.0,0,0,0,-0.11051321029663086,3.405341863632202,4.975870609283447
1762165943.5469787,-17.0,-11.0,-1004.0,0,0,0,-0.11051321029663086,3.405341863632202,4.975870609283447
1762165943.660029,-1.0,-5.0,-985.0,0,0,0,-0.11051321029663086,3.405341863632202,4.975870609283447
1762165943.7716115,8.0,-26.0,-995.0,0,0,0,-0.11051321029663086,3.405341863632202,4.975870609283447
1762165943.8758173,-21.0,-12.0,-1014.0,0,0,0,-0.11051321029663086,3.405341863632202,4.975870609283447
1762165943.9877098,-20.0,-8.0,-1005.0,0,0,0,-0.11051321029663086,3.405341863632202,4.975870609283447
1762165944.100411,-18.0,-1.0,-996.0,0,0,0,-0.11051321029663086,3.405341863632202,4.975870609283447
1762165944.2121325,6.0,-26.0,-1006.0,0,0,0,-0.11051321029663086,3.405341863632202,4.975870609283447
1762165944.3266861,-19.0,3.0,-1000.0,0,0,0,-0.11051321029663086,3.405341863632202,4.975870609283447
1762165944.4405289,12.0,-18.0,-985.0,0,0,0,-0.11051321029663086,3.405341863632202,4.975870609283447
1762165944.5531192,2.0,-9.0,-994.0,0,0,0,-0.11051321029663086,3.405341863632202,4.975870609283447
1762165944.6659822,-21.0,0.0,-989.0,0,0,0,-0.11051321029663086,3.405341863632202,4.975870609283447
1762165944.7790043,-10.0,-7.0,-976.0,0,0,0,-0.11051321029663086,3.405341863632202,4.975870609283447
1762165944.89364,-22.0,-6.0,-999.0,0,0,0,-0.11051321029663086,3.405341863632202,4.975870609283447
1762165945.0076141,-15.0,0.0,-1001.0,0,0,0,-0.11051321029663086,3.405341863632202,4.975870609283447
1762165945.1204543,0.0,0.0,-999.0,0,0,0,-0.11051321029663086,3.405341863632202,4.975870609283447
1762165945.2330904,-26.0,5.0,-995.0,0,0,0,-0.11051321029663086,3.405341863632202,4.975870609283447
1762165945.3464587,-12.0,-8.0,-997.0,0,0,0,-0.11051321029663086,3.405341863632202,4.975870609283447
1762165945.4593234,-19.0,11.0,-995.0,0,0,0,-0.11051321029663086,3.405341863632202,4.975870609283447
1762165945.570875,-23.0,3.0,-991.0,0,0,0,-0.11051321029663086,3.405341863632202,4.975870609283447
1762165945.6827297,6.0,-3.0,-1001.0,0,0,0,-0.11051321029663086,3.405341863632202,4.975870609283447
1762165945.795773,-8.0,-8.0,-996.0,0,0,0,-0.11051321029663086,3.405341863632202,4.975870609283447
1762165945.9077964,-21.0,10.0,-979.0,0,0,0,-0.11051321029663086,3.405341863632202,4.975870609283447
1762165946.0240552,2.0,0.0,-1006.0,0,0,0,-0.11051321029663086,3.405341863632202,4.975870609283447
1762165946.135964,-19.0,0.0,-999.0,0,0,0,-0.11051321029663086,3.405341863632202,4.975870609283447
1762165946.2493591,4.0,-1.0,-1005.0,0,0,0,-0.11051321029663086,3.405341863632202,4.975870609283447
1762165946.361858,-5.0,4.0,-1001.0,0,0,0,-0.11051321029663086,3.405341863632202,4.975870609283447
1762165946.4776635,8.0,-21.0,-1012.0,0,0,0,-0.11051321029663086,3.405341863632202,4.975870609283447
1762165946.5904357,-20.0,17.0,-999.0,0,0,0,-0.11051321029663086,3.405341863632202,4.975870609283447
1762165946.701386,3.0,4.0,-1017.0,0,0,0,-0.11051321029663086,3.405341863632202,4.975870609283447
1762165946.8144836,-8.0,2.0,-989.0,0,0,0,-0.11051321029663086,3.405341863632202,4.975870609283447
1762165946.926389,-4.0,0.0,-1009.0,0,0,0,-0.11051321029663086,3.405341863632202,4.975870609283447
1762165947.042756,-1.0,6.0,-1001.0,0,0,0,-0.11051321029663086,3.405341863632202,4.975870609283447
1762165947.1541636,0.0,4.0,-993.0,0,0,0,-0.11051321029663086,3.405341863632202,4.975870609283447
1762165947.265798,5.0,-9.0,-1000.0,0,0,0,-0.11051321029663086,3.405341863632202,4.975870609283447
1762165947.378649,-11.0,4.0,-1001.0,0,0,0,-0.11051321029663086,3.405341863632202,4.975870609283447
1762165947.4922178,-5.0,-1.0,-982.0,0,0,0,-0.11051321029663086,3.405341863632202,4.975870609283447
1762165947.6077096,-7.0,-5.0,-997.0,0,0,0,-0.11051321029663086,3.405341863632202,4.975870609283447
1762165947.7206633,-8.0,-7.0,-969.0,0,0,0,-0.11051321029663086,3.405341863632202,4.975870609283447
1762165947.8337421,5.0,-14.0,-1012.0,0,0,0,-0.11051321029663086,3.405341863632202,4.975870609283447
1762165947.9467266,-19.0,1.0,-996.0,0,0,0,-0.11051321029663086,3.405341863632202,4.975870609283447
1762165948.0477366,-8.0,-2.0,-1002.0,0,0,0,-0.11051321029663086,3.405341863632202,4.975870609283447
1762165948.1580431,-7.0,5.0,-1024.0,0,0,0,-0.11051321029663086,3.405341863632202,4.975870609283447
1762165948.261839,-3.0,-6.0,-1005.0,0,0,0,-0.11051321029663086,3.405341863632202,4.975870609283447
1762165948.3636343,-1.0,6.0,-996.0,0,0,0,-0.11051321029663086,3.405341863632202,4.975870609283447
1762165948.474141,-7.0,-12.0,-1031.0,0,0,0,-0.11051321029663086,3.405341863632202,4.975870609283447
1762165948.5785534,10.0,0.0,-987.0,0,0,0,-0.11051321029663086,3.405341863632202,4.975870609283447
1762165948.6904187,6.0,8.0,-993.0,0,-1,0,-0.11051321029663086,3.2934765815734863,4.975870609283447
1762165948.7940202,-7.0,-18.0,-988.0,0,-1,0,-0.11051321029663086,3.1898751258850098,4.975870609283447
1762165948.9062638,-12.0,-16.0,-1004.0,0,-2,0,-0.11051321029663086,2.9653878211975098,4.975870609283447
1762165949.0187538,-2.0,-35.0,-1017.0,0,-2,0,-0.11051321029663086,2.740407943725586,4.975870609283447
1762165949.1285882,-2.0,-15.0,-1017.0,0,-2,0,-0.11051321029663086,2.5207390785217285,4.975870609283447
1762165949.2401366,-20.0,-2.0,-1021.0,0,-2,0,-0.11051321029663086,2.297642230987549,4.975870609283447
1762165949.3525567,-18.0,-30.0,-1004.0,0,-2,0,-0.11051321029663086,2.0728020668029785,4.975870609283447
1762165949.464591,-16.0,-17.0,-1014.0,0,-2,0,-0.11051321029663086,1.8487334251403809,4.975870609283447
1762165949.5750558,-33.0,-3.0,-985.0,0,-2,0,-0.11051321029663086,1.6278038024902344,4.975870609283447
1762165949.6769996,6.0,-7.0,-964.0,0,-2,0,-0.11051321029663086,1.4239163398742676,4.975870609283447
1762165949.7899985,-25.0,-19.0,-1016.0,0,-2,0,-0.11051321029663086,1.19791841506958,4.975870609283447
1762165949.9029236,12.0,-14.0,-1012.0,0,-2,0,-0.11051321029663086,0.9720683097839355,4.975870609283447
1762165950.0165067,-1.0,-19.0,-972.0,0,-2,0,-0.11051321029663086,0.7449021339416504,4.975870609283447
1762165950.128982,-8.0,-4.0,-998.0,0,-2,0,-0.11051321029663086,0.519951343536377,4.975870609283447
1762165950.2420752,-18.0,15.0,-994.0,0,-2,0,-0.11051321029663086,0.2937650680541992,4.975870609283447
1762165950.35517,-25.0,-26.0,-1016.0,0,-2,0,-0.11051321029663086,0.06757545471191406,4.975870609283447
1762165950.4682453,3.0,-28.0,-971.0,0,-2,0,-0.11051321029663086,-0.15857505798339844,4.975870609283447
1762165950.5804877,2.0,-44.0,-1061.0,0,-2,0,-0.11051321029663086,-0.3830599784851074,4.975870609283447
1762165950.6918678,-6.0,-21.0,-1012.0,0,0,0,-0.11051321029663086,-0.3830599784851074,4.975870609283447
1762165950.7968094,-7.0,-17.0,-989.0,0,0,0,-0.11051321029663086,-0.3830599784851074,4.975870609283447
1762165950.9110773,-20.0,-14.0,-1015.0,0,0,0,-0.11051321029663086,-0.3830599784851074,4.975870609283447
1762165951.0239358,-13.0,-19.0,-1027.0,0,0,0,-0.11051321029663086,-0.3830599784851074,4.975870609283447
1762165951.1369288,-11.0,-12.0,-981.0,0,0,0,-0.11051321029663086,-0.3830599784851074,4.975870609283447
1762165951.2440534,-14.0,-10.0,-984.0,0,0,0,-0.11051321029663086,-0.3830599784851074,4.975870609283447
1762165951.344704,-11.0,-10.0,-989.0,0,0,0,-0.11051321029663086,-0.3830599784851074,4.975870609283447
1762165951.445606,-16.0,3.0,-1007.0,0,0,0,-0.11051321029663086,-0.3830599784851074,4.975870609283447
1762165951.5462801,-10.0,-13.0,-1018.0,0,0,0,-0.11051321029663086,-0.3830599784851074,4.975870609283447
1762165951.6482677,1.0,12.0,-996.0,0,0,0,-0.11051321029663086,-0.3830599784851074,4.975870609283447
1762165951.7612472,0.0,-3.0,-970.0,0,0,0,-0.11051321029663086,-0.3830599784851074,4.975870609283447
1762165951.8626547,5.0,-13.0,-1000.0,0,0,0,-0.11051321029663086,-0.3830599784851074,4.975870609283447
1762165951.9778812,-9.0,-17.0,-1016.0,0,0,0,-0.11051321029663086,-0.3830599784851074,4.975870609283447
1762165952.0797596,-6.0,-2.0,-1028.0,0,0,0,-0.11051321029663086,-0.3830599784851074,4.975870609283447
1762165952.1928973,7.0,-10.0,-1000.0,0,0,0,-0.11051321029663086,-0.3830599784851074,4.975870609283447
1762165952.295224,-11.0,14.0,-1025.0,0,0,0,-0.11051321029663086,-0.3830599784851074,4.975870609283447
1762165952.407744,-6.0,-18.0,-982.0,0,0,0,-0.11051321029663086,-0.3830599784851074,4.975870609283447
1762165952.520297,3.0,-4.0,-1020.0,0,0,0,-0.11051321029663086,-0.3830599784851074,4.975870609283447
1762165952.6328943,-10.0,-15.0,-993.0,0,0,0,-0.11051321029663086,-0.3830599784851074,4.975870609283447
1762165952.7460203,1.0,-7.0,-1003.0,0,0,0,-0.11051321029663086,-0.3830599784851074,4.975870609283447
1762165952.860464,8.0,-40.0,-979.0,0,0,0,-0.11051321029663086,-0.3830599784851074,4.975870609283447
1762165952.9734845,-6.0,-17.0,-995.0,0,0,0,-0.11051321029663086,-0.3830599784851074,4.975870609283447
1762165953.086552,3.0,-31.0,-1009.0,0,0,0,-0.11051321029663086,-0.3830599784851074,4.975870609283447
1762165953.1991563,-3.0,-18.0,-1004.0,0,0,0,-0.11051321029663086,-0.3830599784851074,4.975870609283447
1762165953.3116374,-9.0,-36.0,-976.0,0,0,0,-0.11051321029663086,-0.3830599784851074,4.975870609283447
1762165953.4262607,-11.0,-5.0,-1008.0,0,0,0,-0.11051321029663086,-0.3830599784851074,4.975870609283447
1762165953.5389028,-18.0,-17.0,-985.0,0,0,0,-0.11051321029663086,-0.3830599784851074,4.975870609283447
1762165953.651115,-13.0,-5.0,-1000.0,0,0,0,-0.11051321029663086,-0.3830599784851074,4.975870609283447
1762165953.7620027,-14.0,-19.0,-997.0,0,0,0,-0.11051321029663086,-0.3830599784851074,4.975870609283447
1762165953.8746417,-16.0,-2.0,-1018.0,0,0,0,-0.11051321029663086,-0.3830599784851074,4.975870609283447
1762165953.990925,-14.0,-15.0,-988.0,0,0,0,-0.11051321029663086,-0.3830599784851074,4.975870609283447
1762165954.1028566,0.0,6.0,-1007.0,0,0,0,-0.11051321029663086,-0.3830599784851074,4.975870609283447
1762165954.2147825,-4.0,-9.0,-1002.0,0,0,0,-0.11051321029663086,-0.3830599784851074,4.975870609283447
1762165954.3278549,-12.0,-4.0,-1059.0,0,0,0,-0.11051321029663086,-0.3830599784851074,4.975870609283447
1762165954.4433517,4.0,-10.0,-1028.0,0,0,0,-0.11051321029663086,-0.3830599784851074,4.975870609283447
1762165954.5553722,10.0,-10.0,-1007.0,0,0,0,-0.11051321029663086,-0.3830599784851074,4.975870609283447
1762165954.668493,7.0,-6.0,-1027.0,0,0,0,-0.11051321029663086,-0.3830599784851074,4.975870609283447
1762165954.7815099,-1.0,-26.0,-1008.0,0,0,0,-0.11051321029663086,-0.3830599784851074,4.975870609283447
1762165954.8935566,10.0,3.0,-1014.0,0,0,0,-0.11051321029663086,-0.3830599784851074,4.975870609283447
1762165954.9943547,-6.0,-9.0,-1025.0,0,0,0,-0.11051321029663086,-0.3830599784851074,4.975870609283447
1762165955.1059406,-4.0,16.0,-997.0,0,0,1,-0.11051321029663086,-0.3830599784851074,5.087456464767456
1762165955.2189505,14.0,-2.0,-998.0,0,0,0,-0.11051321029663086,-0.3830599784851074,5.087456464767456
1762165955.3310251,-10.0,6.0,-1002.0,0,0,0,-0.11051321029663086,-0.3830599784851074,5.087456464767456
1762165955.442966,-19.0,-28.0,-1006.0,0,0,0,-0.11051321029663086,-0.3830599784851074,5.087456464767456
1762165955.544544,30.0,7.0,-987.0,0,0,0,-0.11051321029663086,-0.3830599784851074,5.087456464767456
1762165955.6577268,-21.0,-44.0,-968.0,0,0,0,-0.11051321029663086,-0.3830599784851074,5.087456464767456
1762165955.770589,-3.0,15.0,-993.0,0,0,0,-0.11051321029663086,-0.3830599784851074,5.087456464767456
1762165955.883837,8.0,-7.0,-992.0,0,0,0,-0.11051321029663086,-0.3830599784851074,5.087456464767456
1762165955.9954805,1.0,-22.0,-968.0,0,0,0,-0.11051321029663086,-0.3830599784851074,5.087456464767456
1762165956.1075969,-5.0,5.0,-1020.0,0,0,0,-0.11051321029663086,-0.3830599784851074,5.087456464767456
1762165956.219747,2.0,8.0,-977.0,0,0,0,-0.11051321029663086,-0.3830599784851074,5.087456464767456
1762165956.3307292,7.0,-19.0,-993.0,0,0,0,-0.11051321029663086,-0.3830599784851074,5.087456464767456
1762165956.4436867,0.0,-25.0,-997.0,0,0,0,-0.11051321029663086,-0.3830599784851074,5.087456464767456
1762165956.54459,-4.0,-24.0,-995.0,0,0,0,-0.11051321029663086,-0.3830599784851074,5.087456464767456
1762165956.658274,2.0,-19.0,-1008.0,0,0,0,-0.11051321029663086,-0.3830599784851074,5.087456464767456
1762165956.772151,5.0,-34.0,-985.0,0,0,0,-0.11051321029663086,-0.3830599784851074,5.087456464767456
1762165956.884766,-12.0,-17.0,-1000.0,0,0,0,-0.11051321029663086,-0.3830599784851074,5.087456464767456
1762165956.996736,0.0,8.0,-977.0,0,0,0,-0.11051321029663086,-0.3830599784851074,5.087456464767456
1762165957.109547,-21.0,5.0,-1006.0,0,0,0,-0.11051321029663086,-0.3830599784851074,5.087456464767456
1762165957.2225409,-7.0,12.0,-1015.0,0,0,0,-0.11051321029663086,-0.3830599784851074,5.087456464767456
1762165957.3361733,0.0,-26.0,-1005.0,0,0,0,-0.11051321029663086,-0.3830599784851074,5.087456464767456
1762165957.449336,11.0,-32.0,-1000.0,0,0,0,-0.11051321029663086,-0.3830599784851074,5.087456464767456
1762165957.5624082,24.0,-13.0,-998.0,0,0,0,-0.11051321029663086,-0.3830599784851074,5.087456464767456
1762165957.6754408,20.0,-8.0,-1004.0,0,0,0,-0.11051321029663086,-0.3830599784851074,5.087456464767456
1762165957.78853,-12.0,-15.0,-1006.0,0,0,0,-0.11051321029663086,-0.3830599784851074,5.087456464767456
1762165957.9018338,0.0,-13.0,-1002.0,0,0,0,-0.11051321029663086,-0.3830599784851074,5.087456464767456
1762165958.01476,9.0,-5.0,-994.0,0,0,0,-0.11051321029663086,-0.3830599784851074,5.087456464767456
1762165958.12798,11.0,-21.0,-980.0,0,0,0,-0.11051321029663086,-0.3830599784851074,5.087456464767456
1762165958.2400482,-2.0,-16.0,-956.0,0,0,0,-0.11051321029663086,-0.3830599784851074,5.087456464767456
1762165958.3508444,19.0,-40.0,-1006.0,0,0,0,-0.11051321029663086,-0.3830599784851074,5.087456464767456
1762165958.4616067,11.0,-47.0,-1008.0,0,0,0,-0.11051321029663086,-0.3830599784851074,5.087456464767456
1762165958.572883,23.0,-23.0,-981.0,0,0,0,-0.11051321029663086,-0.3830599784851074,5.087456464767456
1762165958.6764882,-1.0,-30.0,-1000.0,0,0,0,-0.11051321029663086,-0.3830599784851074,5.087456464767456
1762165958.7884731,-2.0,-48.0,-1001.0,0,0,0,-0.11051321029663086,-0.3830599784851074,5.087456464767456
1762165958.900897,9.0,-17.0,-985.0,0,0,0,-0.11051321029663086,-0.3830599784851074,5.087456464767456
1762165959.0126941,-14.0,-17.0,-986.0,0,0,0,-0.11051321029663086,-0.3830599784851074,5.087456464767456
1762165959.1255565,14.0,2.0,-992.0,0,0,0,-0.11051321029663086,-0.3830599784851074,5.087456464767456
1762165959.2414715,-13.0,-22.0,-1024.0,0,0,0,-0.11051321029663086,-0.3830599784851074,5.087456464767456
1762165959.352427,-7.0,3.0,-999.0,0,0,0,-0.11051321029663086,-0.3830599784851074,5.087456464767456
1762165959.4650342,0.0,-41.0,-1000.0,0,0,0,-0.11051321029663086,-0.3830599784851074,5.087456464767456
1762165959.5771363,-2.0,-19.0,-986.0,0,0,0,-0.11051321029663086,-0.3830599784851074,5.087456464767456
1762165959.6885543,-10.0,-16.0,-1009.0,0,0,0,-0.11051321029663086,-0.3830599784851074,5.087456464767456
1762165959.792435,0.0,-26.0,-1002.0,0,0,0,-0.11051321029663086,-0.3830599784851074,5.087456464767456
1762165959.9052393,0.0,-17.0,-964.0,0,0,0,-0.11051321029663086,-0.3830599784851074,5.087456464767456
1762165960.0176182,6.0,-22.0,-1008.0,0,0,0,-0.11051321029663086,-0.3830599784851074,5.087456464767456
1762165960.129869,-1.0,-8.0,-1029.0,0,0,0,-0.11051321029663086,-0.3830599784851074,5.087456464767456
1762165960.2451153,0.0,-15.0,-986.0,0,0,0,-0.11051321029663086,-0.3830599784851074,5.087456464767456
1762165960.3575325,6.0,2.0,-990.0,0,0,0,-0.11051321029663086,-0.3830599784851074,5.087456464767456
1762165960.4695709,2.0,-12.0,-980.0,0,0,0,-0.11051321029663086,-0.3830599784851074,5.087456464767456
1762165960.5829554,-8.0,-14.0,-983.0,0,0,0,-0.11051321029663086,-0.3830599784851074,5.087456464767456
1762165960.6936905,13.0,28.0,-982.0,0,0,0,-0.11051321029663086,-0.3830599784851074,5.087456464767456
1762165960.796896,0.0,-32.0,-997.0,0,0,0,-0.11051321029663086,-0.3830599784851074,5.087456464767456
1762165960.8981028,-5.0,-12.0,-970.0,0,0,0,-0.11051321029663086,-0.3830599784851074,5.087456464767456
1762165961.0087523,13.0,6.0,-1000.0,0,0,0,-0.11051321029663086,-0.3830599784851074,5.087456464767456
1762165961.1218328,13.0,-11.0,-967.0,0,0,0,-0.11051321029663086,-0.3830599784851074,5.087456464767456
1762165961.2347302,-10.0,-21.0,-988.0,0,0,0,-0.11051321029663086,-0.3830599784851074,5.087456464767456
1762165961.3448424,-17.0,2.0,-1007.0,0,0,0,-0.11051321029663086,-0.3830599784851074,5.087456464767456
1762165961.446443,9.0,-21.0,-972.0,0,0,0,-0.11051321029663086,-0.3830599784851074,5.087456464767456
1762165961.5613768,-4.0,-2.0,-954.0,0,0,0,-0.11051321029663086,-0.3830599784851074,5.087456464767456
1762165961.6628375,-5.0,3.0,-949.0,0,0,-1,-0.11051321029663086,-0.3830599784851074,4.985995769500732
1762165961.7777388,-8.0,-3.0,-944.0,0,0,-1,-0.11051321029663086,-0.3830599784851074,4.871094465255737
1762165961.878309,-3.0,-15.0,-935.0,0,0,-2,-0.11051321029663086,-0.3830599784851074,4.669954061508179
1762165961.9793484,6.0,-19.0,-935.0,0,0,-3,-0.11051321029663086,-0.3830599784851074,4.366835832595825
1762165962.0836797,6.0,-29.0,-951.0,0,0,-3,-0.11051321029663086,-0.3830599784851074,4.053842067718506
1762165962.1921732,0.0,-5.0,-944.0,0,0,-4,-0.11051321029663086,-0.3830599784851074,3.6198678016662598
1762165962.3048666,-12.0,-1.0,-980.0,0,0,-5,-0.11051321029663086,-0.3830599784851074,3.056401252746582
1762165962.4104874,-15.0,-5.0,-994.0,0,0,-5,-0.11051321029663086,-0.3830599784851074,2.528296947479248
1762165962.5233867,-8.0,-15.0,-983.0,0,0,-5,-0.11051321029663086,-0.3830599784851074,1.9638004302978516
1762165962.636282,-3.0,8.0,-991.0,0,0,-5,-0.11051321029663086,-0.3830599784851074,1.3993241786956787
1762165962.7483194,-4.0,-2.0,-1014.0,0,0,-5,-0.11051321029663086,-0.3830599784851074,0.839137077331543
1762165962.8610523,-12.0,-5.0,-1013.0,0,0,-5,-0.11051321029663086,-0.3830599784851074,0.27547264099121094
1762165962.9758012,-22.0,7.0,-998.0,0,0,-5,-0.11051321029663086,-0.3830599784851074,-0.29827213287353516
1762165963.0888405,-9.0,4.0,-1017.0,0,0,-4,-0.11051321029663086,-0.3830599784851074,-0.7504291534423828
1762165963.2013965,-20.0,16.0,-1021.0,0,0,-4,-0.11051321029663086,-0.3830599784851074,-1.200653076171875
1762165963.3147876,-30.0,2.0,-1071.0,0,0,-4,-0.11051321029663086,-0.3830599784851074,-1.6542177200317383
1762165963.4277537,-13.0,-28.0,-1148.0,0,0,-2,-0.11051321029663086,-0.3830599784851074,-1.8801498413085938
1762165963.5384743,12.0,-1.0,-1092.0,0,0,0,-0.11051321029663086,-0.3830599784851074,-1.8801498413085938
1762165963.6502225,-26.0,-3.0,-967.0,0,0,0,-0.11051321029663086,-0.3830599784851074,-1.8801498413085938
1762165963.7629592,-15.0,0.0,-906.0,0,0,0,-0.11051321029663086,-0.3830599784851074,-1.8801498413085938
1762165963.8759003,-4.0,-7.0,-930.0,0,0,0,-0.11051321029663086,-0.3830599784851074,-1.8801498413085938
1762165963.9773388,231.0,-25.0,-1521.0,0,0,0,-0.11051321029663086,-0.3830599784851074,-1.8801498413085938
1762165964.0895774,-91.0,-75.0,-1119.0,0,0,0,-0.11051321029663086,-0.3830599784851074,-1.8801498413085938
1762165964.2026517,-21.0,-1.0,-998.0,0,0,0,-0.11051321029663086,-0.3830599784851074,-1.8801498413085938
1762165964.314805,-37.0,-1.0,-999.0,0,0,0,-0.11051321029663086,-0.3830599784851074,-1.8801498413085938
1762165964.4274445,-20.0,0.0,-998.0,0,0,0,-0.11051321029663086,-0.3830599784851074,-1.8801498413085938
1762165964.5280995,-20.0,-6.0,-994.0,0,0,0,-0.11051321029663086,-0.3830599784851074,-1.8801498413085938
1762165964.6402786,-25.0,3.0,-997.0,0,0,0,-0.11051321029663086,-0.3830599784851074,-1.8801498413085938
1762165964.7523458,-31.0,3.0,-999.0,0,0,0,-0.11051321029663086,-0.3830599784851074,-1.8801498413085938
1762165964.8658733,-22.0,-3.0,-998.0,0,0,0,-0.11051321029663086,-0.3830599784851074,-1.8801498413085938
1762165964.9788592,-21.0,-6.0,-994.0,0,0,0,-0.11051321029663086,-0.3830599784851074,-1.8801498413085938
1762165965.0919445,-24.0,0.0,-998.0,0,0,0,-0.11051321029663086,-0.3830599784851074,-1.8801498413085938
1762165965.203936,-28.0,0.0,-1002.0,0,0,0,-0.11051321029663086,-0.3830599784851074,-1.8801498413085938
1762165965.3153958,-23.0,8.0,-1001.0,0,0,1,-0.11051321029663086,-0.3830599784851074,-1.7686901092529297
1762165965.4275155,-20.0,0.0,-1000.0,0,0,1,-0.11051321029663086,-0.3830599784851074,-1.6565704345703125
1762165965.5288572,-24.0,3.0,-1007.0,0,0,2,-0.11051321029663086,-0.3830599784851074,-1.4538869857788086
1762165965.6411102,-25.0,-2.0,-1006.0,0,0,2,-0.11051321029663086,-0.3830599784851074,-1.2293810844421387
1762165965.7525074,-25.0,3.0,-1001.0,0,0,2,-0.11051321029663086,-0.3830599784851074,-1.0065865516662598
1762165965.8634148,-26.0,0.0,-1005.0,0,0,2,-0.11051321029663086,-0.3830599784851074,-0.7847719192504883
1762165965.975894,-25.0,-6.0,-1003.0,0,0,2,-0.11051321029663086,-0.3830599784851074,-0.5598134994506836
1762165966.0774243,-23.0,0.0,-1004.0,0,0,2,-0.11051321029663086,-0.3830599784851074,-0.356752872467041
1762165966.1891322,-21.0,-2.0,-1005.0,0,0,2,-0.11051321029663086,-0.3830599784851074,-0.13333702087402344
1762165966.3013895,-28.0,4.0,-1004.0,0,0,3,-0.11051321029663086,-0.3830599784851074,0.20343470573425293
1762165966.4151523,-25.0,5.0,-1003.0,0,0,3,-0.11051321029663086,-0.3830599784851074,0.5447232723236084
1762165966.5276463,-26.0,3.0,-1003.0,0,0,3,-0.11051321029663086,-0.3830599784851074,0.8822052478790283
1762165966.6437614,-24.0,-1.0,-1005.0,0,0,4,-0.11051321029663086,-0.3830599784851074,1.346665620803833
1762165966.755602,-24.0,0.0,-1006.0,0,0,4,-0.11051321029663086,-0.3830599784851074,1.79402756690979
1762165966.8681643,-25.0,0.0,-1008.0,0,0,4,-0.11051321029663086,-0.3830599784851074,2.244277238845825
1762165966.9801526,-23.0,-2.0,-1008.0,0,0,4,-0.11051321029663086,-0.3830599784851074,2.692230463027954
1762165967.0926313,-25.0,1.0,-1009.0,0,0,4,-0.11051321029663086,-0.3830599784851074,3.1421453952789307
1762165967.20822,-26.0,0.0,-1007.0,0,0,5,-0.11051321029663086,-0.3830599784851074,3.7200887203216553
1762165967.3210833,-25.0,-2.0,-1009.0,0,0,5,-0.11051321029663086,-0.3830599784851074,4.28440523147583
1762165967.4346726,-25.0,0.0,-1009.0,0,0,5,-0.11051321029663086,-0.3830599784851074,4.852351665496826
1762165967.5477118,-25.0,0.0,-1011.0,0,0,5,-0.11051321029663086,-0.3830599784851074,5.417547941207886
1762165967.662271,-23.0,-2.0,-1009.0,0,0,5,-0.11051321029663086,-0.3830599784851074,5.990343809127808
1762165967.774766,-24.0,0.0,-1011.0,0,0,5,-0.11051321029663086,-0.3830599784851074,6.552818536758423
1762165967.8779576,-24.0,1.0,-1006.0,0,0,5,-0.11051321029663086,-0.3830599784851074,7.068776607513428
1762165967.9819548,-26.0,4.0,-1009.0,0,0,5,-0.11051321029663086,-0.3830599784851074,7.5887627601623535
1762165968.0913618,-22.0,-1.0,-1007.0,0,0,5,-0.11051321029663086,-0.3830599784851074,8.135797500610352
1762165968.194187,-25.0,0.0,-1008.0,0,0,5,-0.11051321029663086,-0.3830599784851074,8.649923324584961
1762165968.3058927,-24.0,2.0,-1010.0,0,0,5,-0.11051321029663086,-0.3830599784851074,9.208452224731445
1762165968.4108515,-25.0,0.0,-1008.0,0,0,5,-0.11051321029663086,-0.3830599784851074,9.733246088027954
1762165968.5115237,-24.0,2.0,-1008.0,0,0,5,-0.11051321029663086,-0.3830599784851074,10.236607313156128
1762165968.612895,-28.0,1.0,-1008.0,0,0,5,-0.11051321029663086,-0.3830599784851074,10.74346375465393
1762165968.7133796,-24.0,1.0,-1008.0,0,0,5,-0.11051321029663086,-0.3830599784851074,11.24588680267334
1762165968.8155923,-25.0,-1.0,-1007.0,0,0,5,-0.11051321029663086,-0.3830599784851074,11.75695013999939
1762165968.9285045,-26.0,1.0,-1006.0,0,0,4,-0.11051321029663086,-0.3830599784851074,12.208598852157593
1762165969.0296695,-26.0,1.0,-1009.0,0,0,4,-0.11051321029663086,-0.3830599784851074,12.613259077072144
1762165969.1304438,-26.0,1.0,-1009.0,0,0,4,-0.11051321029663086,-0.3830599784851074,13.016356229782104
1762165969.2446473,-26.0,0.0,-1008.0,0,0,4,-0.11051321029663086,-0.3830599784851074,13.473170042037964
1762165969.3590891,-26.0,4.0,-1008.0,0,0,4,-0.11051321029663086,-0.3830599784851074,13.93093752861023
1762165969.4725463,-23.0,-2.0,-1009.0,0,0,4,-0.11051321029663086,-0.3830599784851074,14.384766340255737
1762165969.5860662,-26.0,1.0,-1006.0,0,0,4,-0.11051321029663086,-0.3830599784851074,14.83884596824646
1762165969.6990335,-25.0,-5.0,-1006.0,0,0,4,-0.11051321029663086,-0.3830599784851074,15.290714979171753
1762165969.8098762,-23.0,1.0,-1007.0,0,0,4,-0.11051321029663086,-0.3830599784851074,15.73408579826355
1762165969.922955,-23.0,-4.0,-1004.0,0,0,4,-0.11051321029663086,-0.3830599784851074,16.18640112876892
1762165970.0359957,-24.0,-3.0,-1006.0,0,0,4,-0.11051321029663086,-0.3830599784851074,16.638563871383667
1762165970.1489792,-23.0,-4.0,-1006.0,0,0,4,-0.11051321029663086,-0.3830599784851074,17.090497732162476
1762165970.262179,-24.0,1.0,-1008.0,0,0,4,-0.11051321029663086,-0.3830599784851074,17.543296575546265
1762165970.3765647,-23.0,-1.0,-1009.0,0,0,4,-0.11051321029663086,-0.3830599784851074,18.000839948654175
1762165970.489008,-23.0,-3.0,-1002.0,0,0,4,-0.11051321029663086,-0.3830599784851074,18.450612783432007
1762165970.6018395,-28.0,1.0,-1003.0,0,0,4,-0.11051321029663086,-0.3830599784851074,18.901939153671265
1762165970.714013,-22.0,0.0,-1004.0,0,0,4,-0.11051321029663086,-0.3830599784851074,19.35063338279724
1762165970.8277602,-26.0,2.0,-1004.0,0,0,4,-0.11051321029663086,-0.3830599784851074,19.8056218624115
1762165970.9397004,-26.0,-1.0,-1004.0,0,0,4,-0.11051321029663086,-0.3830599784851074,20.253382444381714
1762165971.0527976,-25.0,-2.0,-1004.0,0,0,4,-0.11051321029663086,-0.3830599784851074,20.70577120780945
1762165971.164885,-25.0,0.0,-1002.0,0,0,4,-0.11051321029663086,-0.3830599784851074,21.154121160507202
1762165971.277049,-26.0,0.0,-1003.0,0,0,3,-0.11051321029663086,-0.3830599784851074,21.490613222122192
1762165971.3933814,-23.0,-1.0,-1002.0,0,0,3,-0.11051321029663086,-0.3830599784851074,21.83961009979248
1762165971.5055377,-27.0,-1.0,-1006.0,0,0,3,-0.11051321029663086,-0.3830599784851074,22.176079273223877
1762165971.6176226,-26.0,0.0,-1003.0,0,0,3,-0.11051321029663086,-0.3830599784851074,22.512333869934082
1762165971.7306955,-27.0,2.0,-1005.0,0,0,3,-0.11051321029663086,-0.3830599784851074,22.851552486419678
1762165971.8440044,-23.0,-1.0,-1004.0,0,0,3,-0.11051321029663086,-0.3830599784851074,23.191479206085205
1762165971.9597223,-25.0,0.0,-1002.0,0,0,3,-0.11051321029663086,-0.3830599784851074,23.53863286972046
1762165972.0725596,-26.0,1.0,-1002.0,0,0,3,-0.11051321029663086,-0.3830599784851074,23.877144813537598
1762165972.184979,-23.0,-1.0,-1001.0,0,0,3,-0.11051321029663086,-0.3830599784851074,24.21440291404724
1762165972.2965307,-23.0,-1.0,-1001.0,0,0,3,-0.11051321029663086,-0.3830599784851074,24.549058198928833
1762165972.407671,-23.0,-1.0,-1001.0,0,0,3,-0.11051321029663086,-0.3830599784851074,24.882478952407837
1762165972.5235481,-25.0,0.0,-1001.0,0,0,2,-0.11051321029663086,-0.3830599784851074,25.114233255386353
1762165972.6339228,-25.0,1.0,-1002.0,0,0,2,-0.11051321029663086,-0.3830599784851074,25.3349826335907
1762165972.7445235,-25.0,-1.0,-1001.0,0,0,2,-0.11051321029663086,-0.3830599784851074,25.55618405342102
1762165972.8573277,-25.0,0.0,-998.0,0,0,2,-0.11051321029663086,-0.3830599784851074,25.781792402267456
1762165972.9610996,-27.0,0.0,-1000.0,0,0,2,-0.11051321029663086,-0.3830599784851074,25.989336252212524
1762165973.0738678,-25.0,0.0,-999.0,0,0,2,-0.11051321029663086,-0.3830599784851074,26.21487259864807
1762165973.1861563,-23.0,1.0,-999.0,0,0,2,-0.11051321029663086,-0.3830599784851074,26.439449548721313
1762165973.2992208,-23.0,0.0,-1000.0,0,0,2,-0.11051321029663086,-0.3830599784851074,26.665578603744507
1762165973.4117599,-24.0,0.0,-1000.0,0,0,2,-0.11051321029663086,-0.3830599784851074,26.89065670967102
1762165973.5276265,-26.0,-2.0,-1001.0,0,0,2,-0.11051321029663086,-0.3830599784851074,27.122390031814575
1762165973.6405613,-24.0,2.0,-1000.0,0,0,2,-0.11051321029663086,-0.3830599784851074,27.348259687423706
1762165973.7535982,-24.0,-1.0,-999.0,0,0,1,-0.11051321029663086,-0.3830599784851074,27.461296558380127
1762165973.865427,-25.0,-1.0,-1002.0,0,0,1,-0.11051321029663086,-0.3830599784851074,27.57312536239624
1762165973.9671059,-24.0,0.0,-998.0,0,0,1,-0.11051321029663086,-0.3830599784851074,27.674804210662842
1762165974.0772297,-26.0,0.0,-998.0,0,0,0,-0.11051321029663086,-0.3830599784851074,27.674804210662842
1762165974.1895835,-26.0,2.0,-999.0,0,0,0,-0.11051321029663086,-0.3830599784851074,27.674804210662842
1762165974.302135,-23.0,-3.0,-999.0,0,0,0,-0.11051321029663086,-0.3830599784851074,27.674804210662842
1762165974.412073,-23.0,-1.0,-999.0,0,0,0,-0.11051321029663086,-0.3830599784851074,27.674804210662842
1762165974.5279331,-25.0,-1.0,-998.0,0,0,0,-0.11051321029663086,-0.3830599784851074,27.674804210662842
1762165974.6289823,-24.0,0.0,-1000.0,0,0,0,-0.11051321029663086,-0.3830599784851074,27.674804210662842
1762165974.7451797,-25.0,-1.0,-997.0,0,0,0,-0.11051321029663086,-0.3830599784851074,27.674804210662842
1762165974.8464077,-24.0,0.0,-998.0,0,0,0,-0.11051321029663086,-0.3830599784851074,27.674804210662842
1762165974.9618886,-26.0,-1.0,-998.0,0,0,0,-0.11051321029663086,-0.3830599784851074,27.674804210662842
1762165975.064147,-25.0,0.0,-996.0,0,0,0,-0.11051321029663086,-0.3830599784851074,27.674804210662842
1762165975.1790726,-26.0,0.0,-998.0,0,0,0,-0.11051321029663086,-0.3830599784851074,27.674804210662842
1762165975.2930908,-24.0,0.0,-999.0,0,0,0,-0.11051321029663086,-0.3830599784851074,27.674804210662842
1762165975.40499,-24.0,0.0,-998.0,0,0,0,-0.11051321029663086,-0.3830599784851074,27.674804210662842
1762165975.5173066,-24.0,0.0,-998.0,0,0,0,-0.11051321029663086,-0.3830599784851074,27.674804210662842
1762165975.6279035,-24.0,0.0,-998.0,0,0,0,-0.11051321029663086,-0.3830599784851074,27.674804210662842
1762165975.7407591,-24.0,0.0,-999.0,0,0,0,-0.11051321029663086,-0.3830599784851074,27.674804210662842
