Time,Ax,Ay,Az,Sx,Sy,Sz,x,y,z
1762165895.1427128,-9.0,-9.0,-999.0,0,0,0,0.0,0.0,0.0
1762165895.2437947,-8.0,-9.0,-1001.0,0,0,0,0.0,0.0,0.0
1762165895.3442655,-6.0,-10.0,-1000.0,0,0,0,0.0,0.0,0.0
1762165895.4444146,-8.0,-10.0,-999.0,0,0,0,0.0,0.0,0.0
1762165895.5445573,-9.0,-10.0,-1000.0,0,0,0,0.0,0.0,0.0
1762165895.6447127,-9.0,-10.0,-1004.0,0,0,0,0.0,0.0,0.0
1762165895.745164,-8.0,-9.0,-1001.0,0,0,0,0.0,0.0,0.0
1762165895.8456988,-9.0,-8.0,-1001.0,0,0,0,0.0,0.0,0.0
1762165895.9461951,-9.0,-10.0,-998.0,0,0,0,0.0,0.0,0.0
1762165896.0463629,-9.0,-10.0,-1000.0,0,0,0,0.0,0.0,0.0
1762165896.1468003,-8.0,-10.0,-997.0,0,0,0,0.0,0.0,0.0
1762165896.2473412,-9.0,-10.0,-999.0,0,0,0,0.0,0.0,0.0
1762165896.3480425,-8.0,-10.0,-1000.0,0,0,0,0.0,0.0,0.0
1762165896.4484718,-9.0,-9.0,-1001.0,0,0,0,0.0,0.0,0.0
1762165896.5489192,-10.0,-10.0,-1000.0,0,0,0,0.0,0.0,0.0
1762165896.6492114,-9.0,-10.0,-1000.0,0,0,0,0.0,0.0,0.0
1762165896.749406,-9.0,-11.0,-998.0,0,0,0,0.0,0.0,0.0
1762165896.85011,-9.0,-10.0,-999.0,0,0,0,0.0,0.0,0.0
1762165896.9503767,-10.0,-10.0,-1000.0,0,0,0,0.0,0.0,0.0
1762165897.0509086,-9.0,-10.0,-999.0,0,0,0,0.0,0.0,0.0
1762165897.1511593,-9.0,-9.0,-997.0,0,0,0,0.0,0.0,0.0
1762165897.2514148,-7.0,-10.0,-998.0,0,0,0,0.0,0.0,0.0
1762165897.351669,-8.0,-11.0,-999.0,0,0,0,0.0,0.0,0.0
1762165897.452297,-8.0,-10.0,-997.0,0,0,0,0.0,0.0,0.0
1762165897.552982,-10.0,-11.0,-1001.0,0,0,0,0.0,0.0,0.0
1762165897.6534579,-8.0,-10.0,-999.0,0,0,0,0.0,0.0,0.0
1762165897.7538545,-7.0,-11.0,-1000.0,0,0,0,0.0,0.0,0.0
1762165897.8545024,-9.0,-9.0,-1000.0,0,0,0,0.0,0.0,0.0
1762165897.9549384,-9.0,-10.0,-1003.0,0,0,0,0.0,0.0,0.0
1762165898.0552096,-9.0,-9.0,-1000.0,0,0,0,0.0,0.0,0.0
1762165898.15552,-11.0,-10.0,-999.0,0,0,0,0.0,0.0,0.0
1762165898.255898,-11.0,-10.0,-999.0,0,0,0,0.0,0.0,0.0
1762165898.3566778,-12.0,-9.0,-1001.0,0,0,0,0.0,0.0,0.0
1762165898.457127,-9.0,-15.0,-1004.0,0,0,0,0.0,0.0,0.0
1762165898.5575666,-10.0,-9.0,-1003.0,0,0,0,0.0,0.0,0.0
1762165898.657818,-11.0,10.0,-996.0,0,0,0,0.0,0.0,0.0
1762165898.758154,-16.0,0.0,-1002.0,0,0,0,0.0,0.0,0.0
1762165898.8585737,-10.0,-4.0,-996.0,0,0,0,0.0,0.0,0.0
1762165898.9592445,-1.0,5.0,-1025.0,0,0,0,0.0,0.0,0.0
1762165899.0597055,0.0,15.0,-1079.0,0,0,0,0.0,0.0,0.0
1762165899.1600146,-6.0,4.0,-1125.0,0,0,0,0.0,0.0,0.0
1762165899.260302,6.0,17.0,-1160.0,0,0,1,0.0,0.0,0.10028743743896484
1762165899.3604965,-14.0,-21.0,-1132.0,0,0,3,0.0,0.0,0.40087080001831055
1762165899.4612932,-30.0,3.0,-1040.0,0,0,4,0.0,0.0,0.8040575981140137
1762165899.5618873,-7.0,-4.0,-1002.0,0,0,5,0.0,0.0,1.307027816772461
1762165899.6622293,12.0,14.0,-1033.0,0,0,5,0.0,0.0,1.8087379932403564
1762165899.762547,-5.0,-1.0,-992.0,0,0,5,0.0,0.0,2.31032657623291
1762165899.862937,-12.0,0.0,-985.0,0,0,5,0.0,0.0,2.8122763633728027
1762165899.9635525,0.0,4.0,-982.0,0,0,5,0.0,0.0,3.3153538703918457
1762165900.0638564,-26.0,-1.0,-967.0,0,0,5,0.0,0.0,3.81687331199646
1762165900.1646311,-8.0,1.0,-946.0,0,0,5,0.0,0.0,4.320747137069702
1762165900.265215,-8.0,1.0,-946.0,0,0,5,0.0,0.0,4.823666095733643
1762165900.3654096,-14.0,8.0,-936.0,0,0,4,0.0,0.0,5.22444486618042
1762165900.465829,-15.0,2.0,-928.0,0,0,3,0.0,0.0,5.525702714920044
1762165900.566417,-15.0,0.0,-948.0,0,0,3,0.0,0.0,5.82746696472168
1762165900.6671066,-20.0,2.0,-936.0,0,0,2,0.0,0.0,6.028846263885498
1762165900.767459,-18.0,0.0,-951.0,0,0,1,0.0,0.0,6.1291985511779785
1762165900.8677006,-18.0,0.0,-951.0,0,0,1,0.0,0.0,6.229440212249756
1762165900.9680977,-22.0,0.0,-954.0,0,0,0,0.0,0.0,6.229440212249756
1762165901.0684133,1.0,-8.0,-974.0,0,0,0,0.0,0.0,6.229440212249756
1762165901.1686685,-8.0,17.0,-980.0,0,0,0,0.0,0.0,6.229440212249756
1762165901.269334,-11.0,9.0,-983.0,0,0,0,0.0,0.0,6.229440212249756
1762165901.3698604,6.0,0.0,-983.0,0,0,0,0.0,0.0,6.229440212249756
1762165901.4706209,6.0,0.0,-983.0,0,0,0,0.0,0.0,6.229440212249756
1762165901.5711226,-15.0,-3.0,-981.0,0,0,0,0.0,0.0,6.229440212249756
1762165901.6716275,-16.0,-2.0,-981.0,0,0,0,0.0,0.0,6.229440212249756
1762165901.7721188,-13.0,9.0,-1030.0,0,0,-1,0.0,0.0,6.128948926925659
1762165901.8722658,-26.0,-2.0,-996.0,0,0,-1,0.0,0.0,6.028801918029785
1762165901.9730165,-23.0,-7.0,-1016.0,0,0,-1,0.0,0.0,5.928051233291626
1762165902.073178,-2.0,8.0,-1025.0,0,0,0,0.0,0.0,5.928051233291626
1762165902.1736684,-9.0,1.0,-1026.0,0,0,0,0.0,0.0,5.928051233291626
1762165902.2740073,-7.0,7.0,-1024.0,0,0,0,0.0,0.0,5.928051233291626
1762165902.37444,-9.0,8.0,-1015.0,0,0,0,0.0,0.0,5.928051233291626
1762165902.474914,-19.0,18.0,-1012.0,0,0,0,0.0,0.0,5.928051233291626
1762165902.5752575,-9.0,-7.0,-1008.0,0,0,0,0.0,0.0,5.928051233291626
1762165902.675974,-28.0,10.0,-1017.0,0,0,0,0.0,0.0,5.928051233291626
1762165902.776197,-8.0,16.0,-1002.0,0,0,0,0.0,0.0,5.928051233291626
1762165902.876673,-30.0,5.0,-999.0,0,0,0,0.0,0.0,5.928051233291626
1762165902.9768424,-13.0,-9.0,-1005.0,0,0,0,0.0,0.0,5.928051233291626
1762165903.0772738,-21.0,8.0,-995.0,0,0,0,0.0,0.0,5.928051233291626
1762165903.1780422,-34.0,8.0,-1017.0,0,0,0,0.0,0.0,5.928051233291626
1762165903.278534,-26.0,8.0,-978.0,0,0,0,0.0,0.0,5.928051233291626
1762165903.3787794,-14.0,9.0,-992.0,0,0,0,0.0,0.0,5.928051233291626
1762165903.4790773,-10.0,-6.0,-987.0,0,0,0,0.0,0.0,5.928051233291626
1762165903.5796442,-18.0,-9.0,-980.0,0,0,0,0.0,0.0,5.928051233291626
1762165903.6799855,-16.0,10.0,-974.0,0,0,0,0.0,0.0,5.928051233291626
1762165903.7804623,-17.0,18.0,-983.0,0,0,0,0.0,0.0,5.928051233291626
1762165903.8812723,-5.0,11.0,-990.0,0,0,0,0.0,0.0,5.928051233291626
1762165903.9815495,-5.0,11.0,-990.0,0,0,0,0.0,0.0,5.928051233291626
1762165904.0816872,3.0,12.0,-998.0,0,0,0,0.0,0.0,5.928051233291626
1762165904.1823199,-26.0,2.0,-1039.0,0,0,0,0.0,0.0,5.928051233291626
1762165904.2825916,-20.0,4.0,-1015.0,0,0,0,0.0,0.0,5.928051233291626
1762165904.3831296,-20.0,-6.0,-1019.0,0,0,0,0.0,0.0,5.928051233291626
1762165904.4837923,-20.0,0.0,-1007.0,0,0,0,0.0,0.0,5.928051233291626
1762165904.5839899,-29.0,2.0,-996.0,0,0,0,0.0,0.0,5.928051233291626
1762165904.6848252,-12.0,-1.0,-1008.0,0,0,0,0.0,0.0,5.928051233291626
1762165904.7849977,-29.0,7.0,-1001.0,0,0,0,0.0,0.0,5.928051233291626
1762165904.8852508,-29.0,7.0,-1001.0,0,0,0,0.0,0.0,5.928051233291626
1762165904.9859395,-13.0,-26.0,-998.0,0,0,0,0.0,0.0,5.928051233291626
1762165905.0864937,-21.0,-25.0,-991.0,0,0,0,0.0,0.0,5.928051233291626
1762165905.187153,-17.0,-10.0,-984.0,0,0,0,0.0,0.0,5.928051233291626
1762165905.287934,-26.0,3.0,-1004.0,0,0,0,0.0,0.0,5.928051233291626
1762165905.388174,-20.0,-15.0,-1014.0,0,0,0,0.0,0.0,5.928051233291626
1762165905.4886265,-23.0,9.0,-988.0,0,0,0,0.0,0.0,5.928051233291626
1762165905.5894141,-2.0,-1.0,-989.0,0,0,0,0.0,0.0,5.928051233291626
1762165905.6897733,-8.0,-5.0,-996.0,0,0,0,0.0,0.0,5.928051233291626
1762165905.7900026,-16.0,-15.0,-990.0,0,0,0,0.0,0.0,5.928051233291626
1762165905.8902016,-1.0,-29.0,-1005.0,0,0,0,0.0,0.0,5.928051233291626
1762165905.9909189,-11.0,-22.0,-1007.0,0,0,0,0.0,0.0,5.928051233291626
1762165906.0915306,-8.0,-24.0,-992.0,0,0,0,0.0,0.0,5.928051233291626
1762165906.1921477,-15.0,3.0,-1024.0,0,0,0,0.0,0.0,5.928051233291626
1762165906.2926157,-5.0,-11.0,-1007.0,0,0,0,0.0,0.0,5.928051233291626
1762165906.392896,-35.0,2.0,-1000.0,0,0,0,0.0,0.0,5.928051233291626
1762165906.4936059,-17.0,2.0,-984.0,0,0,0,0.0,0.0,5.928051233291626
1762165906.5939584,4.0,16.0,-955.0,0,0,0,0.0,0.0,5.928051233291626
1762165906.694319,-7.0,5.0,-971.0,0,0,0,0.0,0.0,5.928051233291626
1762165906.7949402,-20.0,15.0,-990.0,0,0,0,0.0,0.0,5.928051233291626
1762165906.89531,6.0,5.0,-956.0,0,0,0,0.0,0.0,5.928051233291626
1762165906.9958868,28.0,15.0,-995.0,0,0,0,0.0,0.0,5.928051233291626
1762165907.0963964,-17.0,7.0,-989.0,0,0,0,0.0,0.0,5.928051233291626
1762165907.1968727,-26.0,12.0,-991.0,0,0,0,0.0,0.0,5.928051233291626
1762165907.2972727,-4.0,15.0,-1003.0,0,0,0,0.0,0.0,5.928051233291626
1762165907.3976865,-25.0,20.0,-996.0,0,0,0,0.0,0.0,5.928051233291626
1762165907.4981048,-25.0,20.0,-996.0,0,0,0,0.0,0.0,5.928051233291626
1762165907.598354,-32.0,-1.0,-1019.0,0,0,0,0.0,0.0,5.928051233291626
1762165907.6986175,-29.0,27.0,-966.0,0,0,0,0.0,0.0,5.928051233291626
1762165907.7992048,-34.0,-1.0,-988.0,0,-1,0,0.0,-0.10058736801147461,5.928051233291626
1762165907.8998384,-53.0,13.0,-999.0,0,-1,0,0.0,-0.20122098922729492,5.928051233291626
1762165908.0003827,-53.0,13.0,-999.0,0,-1,0,0.0,-0.30176520347595215,5.928051233291626
1762165908.1012664,-34.0,5.0,-972.0,0,-2,0,0.0,-0.5035326480865479,5.928051233291626
1762165908.201514,-67.0,10.0,-982.0,0,-2,0,0.0,-0.7040278911590576,5.928051233291626
1762165908.3021235,-67.0,10.0,-982.0,0,-2,0,0.0,-0.9052469730377197,5.928051233291626
1762165908.4028158,-34.0,30.0,-1005.0,0,-2,0,0.0,-1.1066315174102783,5.928051233291626
1762165908.5034125,-46.0,2.0,-998.0,0,-2,0,0.0,-1.3078248500823975,5.928051233291626
1762165908.6039243,-39.0,-9.0,-1020.0,0,-2,0,0.0,-1.5088484287261963,5.928051233291626
1762165908.7041852,-44.0,22.0,-1012.0,0,-2,0,0.0,-1.7093703746795654,5.928051233291626
1762165908.8044324,-47.0,-19.0,-1005.0,-1,-2,0,-0.10024714469909668,-1.9098646640777588,5.928051233291626
1762165908.9048767,-55.0,13.0,-1043.0,-1,-2,0,-0.20069146156311035,-2.110753297805786,5.928051233291626
1762165909.005299,-10.0,-11.0,-983.0,-1,-2,0,-0.3011138439178467,-2.311598062515259,5.928051233291626
1762165909.1057365,-42.0,16.0,-923.0,0,-3,0,-0.3011138439178467,-2.612910270690918,5.928051233291626
1762165909.2063615,-43.0,-6.0,-970.0,0,-3,0,-0.3011138439178467,-2.914785385131836,5.928051233291626
1762165909.3066673,-22.0,-13.0,-976.0,-1,-2,0,-0.40141963958740234,-3.1153969764709473,5.928051233291626
1762165909.4069545,-42.0,18.0,-944.0,-1,-2,-1,-0.5017068386077881,-3.3159713745117188,5.82776403427124
1762165909.5073051,-10.0,-1.0,-1024.0,0,-1,-1,-0.5017068386077881,-3.4163219928741455,5.7274134159088135
1762165909.6076112,3.0,-21.0,-1031.0,0,0,-1,-0.5017068386077881,-3.4163219928741455,5.627107381820679
1762165909.7077641,-10.0,-17.0,-1034.0,0,0,-1,-0.5017068386077881,-3.4163219928741455,5.526954412460327
1762165909.8087685,-23.0,6.0,-1035.0,0,0,0,-0.5017068386077881,-3.4163219928741455,5.526954412460327
1762165909.9097676,-28.0,12.0,-1017.0,0,0,0,-0.5017068386077881,-3.4163219928741455,5.526954412460327
1762165910.0102801,-23.0,0.0,-1026.0,0,0,0,-0.5017068386077881,-3.4163219928741455,5.526954412460327
1762165910.1107075,-29.0,7.0,-1041.0,0,0,0,-0.5017068386077881,-3.4163219928741455,5.526954412460327
1762165910.2113838,-9.0,12.0,-1005.0,0,0,0,-0.5017068386077881,-3.4163219928741455,5.526954412460327
1762165910.311959,-6.0,-9.0,-994.0,0,0,0,-0.5017068386077881,-3.4163219928741455,5.526954412460327
1762165910.4126499,-25.0,3.0,-1010.0,0,0,0,-0.5017068386077881,-3.4163219928741455,5.526954412460327
1762165910.513317,-6.0,7.0,-984.0,0,0,0,-0.5017068386077881,-3.4163219928741455,5.526954412460327
1762165910.6139023,-12.0,-1.0,-977.0,0,0,0,-0.5017068386077881,-3.4163219928741455,5.526954412460327
1762165910.7144535,-14.0,-11.0,-988.0,0,0,0,-0.5017068386077881,-3.4163219928741455,5.526954412460327
1762165910.8147576,0.0,-40.0,-975.0,0,0,0,-0.5017068386077881,-3.4163219928741455,5.526954412460327
1762165910.91531,-7.0,0.0,-1037.0,0,0,0,-0.5017068386077881,-3.4163219928741455,5.526954412460327
1762165911.0156925,0.0,23.0,-1006.0,0,0,0,-0.5017068386077881,-3.4163219928741455,5.526954412460327
1762165911.116271,13.0,2.0,-1017.0,0,0,0,-0.5017068386077881,-3.4163219928741455,5.526954412460327
1762165911.2166023,-5.0,-5.0,-1008.0,0,0,0,-0.5017068386077881,-3.4163219928741455,5.526954412460327
1762165911.3173618,-2.0,-7.0,-994.0,0,0,0,-0.5017068386077881,-3.4163219928741455,5.526954412460327
1762165911.4176722,7.0,0.0,-990.0,0,0,0,-0.5017068386077881,-3.4163219928741455,5.526954412460327
1762165911.5182958,0.0,11.0,-988.0,0,0,0,-0.5017068386077881,-3.4163219928741455,5.526954412460327
1762165911.619103,5.0,-2.0,-984.0,0,0,0,-0.5017068386077881,-3.4163219928741455,5.526954412460327
1762165911.7192965,-10.0,-3.0,-979.0,0,1,0,-0.5017068386077881,-3.3161284923553467,5.526954412460327
1762165911.8197558,-10.0,-3.0,-979.0,0,1,0,-0.5017068386077881,-3.2156691551208496,5.526954412460327
1762165911.92033,-24.0,17.0,-1001.0,0,1,0,-0.5017068386077881,-3.1150949001312256,5.526954412460327
1762165912.0207121,13.0,-6.0,-988.0,0,1,0,-0.5017068386077881,-3.0147128105163574,5.526954412460327
1762165912.1213322,-26.0,10.0,-998.0,0,0,0,-0.5017068386077881,-3.0147128105163574,5.526954412460327
1762165912.222014,4.0,9.0,-989.0,0,0,0,-0.5017068386077881,-3.0147128105163574,5.526954412460327
1762165912.3223538,11.0,3.0,-991.0,0,0,0,-0.5017068386077881,-3.0147128105163574,5.526954412460327
1762165912.4227862,-14.0,10.0,-1000.0,0,0,0,-0.5017068386077881,-3.0147128105163574,5.526954412460327
1762165912.5229998,7.0,-7.0,-993.0,0,0,0,-0.5017068386077881,-3.0147128105163574,5.526954412460327
1762165912.6233833,-12.0,5.0,-990.0,0,0,0,-0.5017068386077881,-3.0147128105163574,5.526954412460327
1762165912.7239504,-10.0,16.0,-1024.0,0,0,0,-0.5017068386077881,-3.0147128105163574,5.526954412460327
1762165912.824497,13.0,-3.0,-1002.0,0,0,0,-0.5017068386077881,-3.0147128105163574,5.526954412460327
1762165912.924733,0.0,-1.0,-984.0,0,0,0,-0.5017068386077881,-3.0147128105163574,5.526954412460327
1762165913.0252118,1.0,9.0,-1013.0,0,0,0,-0.5017068386077881,-3.0147128105163574,5.526954412460327
1762165913.125623,-11.0,15.0,-1014.0,0,0,0,-0.5017068386077881,-3.0147128105163574,5.526954412460327
1762165913.2262938,-10.0,1.0,-1000.0,0,0,0,-0.5017068386077881,-3.0147128105163574,5.526954412460327
1762165913.3267694,19.0,7.0,-1005.0,0,0,0,-0.5017068386077881,-3.0147128105163574,5.526954412460327
1762165913.4275908,10.0,-5.0,-1012.0,0,0,0,-0.5017068386077881,-3.0147128105163574,5.526954412460327
1762165913.5281816,-16.0,-15.0,-994.0,0,0,0,-0.5017068386077881,-3.0147128105163574,5.526954412460327
1762165913.6288023,-19.0,16.0,-1016.0,0,0,0,-0.5017068386077881,-3.0147128105163574,5.526954412460327
1762165913.729337,-10.0,-11.0,-1015.0,0,0,0,-0.5017068386077881,-3.0147128105163574,5.526954412460327
1762165913.8296852,-16.0,-7.0,-999.0,0,0,0,-0.5017068386077881,-3.0147128105163574,5.526954412460327
1762165913.9305434,-33.0,18.0,-1019.0,0,0,0,-0.5017068386077881,-3.0147128105163574,5.526954412460327
1762165914.0308118,-3.0,0.0,-998.0,0,0,0,-0.5017068386077881,-3.0147128105163574,5.526954412460327
1762165914.131318,-17.0,18.0,-999.0,0,0,0,-0.5017068386077881,-3.0147128105163574,5.526954412460327
1762165914.2315934,-47.0,14.0,-1004.0,0,0,0,-0.5017068386077881,-3.0147128105163574,5.526954412460327
1762165914.3322873,-37.0,8.0,-987.0,0,0,0,-0.5017068386077881,-3.0147128105163574,5.526954412460327
1762165914.4326441,-7.0,16.0,-979.0,0,0,0,-0.5017068386077881,-3.0147128105163574,5.526954412460327
1762165914.533348,-1.0,-3.0,-1009.0,0,0,0,-0.5017068386077881,-3.0147128105163574,5.526954412460327
1762165914.6337793,-38.0,9.0,-976.0,0,0,0,-0.5017068386077881,-3.0147128105163574,5.526954412460327
1762165914.7339323,-52.0,18.0,-1027.0,0,0,0,-0.5017068386077881,-3.0147128105163574,5.526954412460327
1762165914.8341606,-32.0,12.0,-963.0,0,1,0,-0.5017068386077881,-2.9144845008850098,5.526954412460327
1762165914.934364,-32.0,12.0,-963.0,0,1,0,-0.5017068386077881,-2.8142809867858887,5.526954412460327
1762165915.0348756,-12.0,17.0,-1026.0,0,0,0,-0.5017068386077881,-2.8142809867858887,5.526954412460327
1762165915.1351042,-60.0,22.0,-998.0,0,0,0,-0.5017068386077881,-2.8142809867858887,5.526954412460327
1762165915.2353787,-39.0,-1.0,-1042.0,0,0,0,-0.5017068386077881,-2.8142809867858887,5.526954412460327
1762165915.3359432,-12.0,-18.0,-996.0,0,0,0,-0.5017068386077881,-2.8142809867858887,5.526954412460327
1762165915.4362957,-29.0,0.0,-978.0,0,0,0,-0.5017068386077881,-2.8142809867858887,5.526954412460327
1762165915.5367744,-37.0,-6.0,-1045.0,0,0,0,-0.5017068386077881,-2.8142809867858887,5.526954412460327
1762165915.6369507,-53.0,10.0,-1003.0,0,0,0,-0.5017068386077881,-2.8142809867858887,5.526954412460327
1762165915.737539,-8.0,25.0,-976.0,0,0,0,-0.5017068386077881,-2.8142809867858887,5.526954412460327
1762165915.838309,-28.0,1.0,-1031.0,0,0,0,-0.5017068386077881,-2.8142809867858887,5.526954412460327
1762165915.9387317,-15.0,5.0,-1004.0,0,0,0,-0.5017068386077881,-2.8142809867858887,5.526954412460327
1762165916.039061,-11.0,15.0,-980.0,0,0,0,-0.5017068386077881,-2.8142809867858887,5.526954412460327
1762165916.1393223,0.0,19.0,-978.0,0,0,0,-0.5017068386077881,-2.8142809867858887,5.526954412460327
1762165916.2397234,-36.0,20.0,-980.0,0,0,0,-0.5017068386077881,-2.8142809867858887,5.526954412460327
1762165916.340416,-19.0,6.0,-983.0,0,0,0,-0.5017068386077881,-2.8142809867858887,5.526954412460327
1762165916.440783,-17.0,-2.0,-1020.0,0,0,0,-0.5017068386077881,-2.8142809867858887,5.526954412460327
1762165916.5413854,-21.0,31.0,-1020.0,0,0,0,-0.5017068386077881,-2.8142809867858887,5.526954412460327
1762165916.641822,-26.0,17.0,-960.0,0,0,0,-0.5017068386077881,-2.8142809867858887,5.526954412460327
1762165916.741974,-16.0,20.0,-1003.0,0,0,0,-0.5017068386077881,-2.8142809867858887,5.526954412460327
1762165916.8426619,-27.0,16.0,-1005.0,0,0,0,-0.5017068386077881,-2.8142809867858887,5.526954412460327
1762165916.9432628,-3.0,29.0,-1009.0,0,0,0,-0.5017068386077881,-2.8142809867858887,5.526954412460327
1762165917.0439563,-20.0,6.0,-1006.0,0,0,0,-0.5017068386077881,-2.8142809867858887,5.526954412460327
1762165917.1442435,-38.0,8.0,-1007.0,0,0,0,-0.5017068386077881,-2.8142809867858887,5.526954412460327
1762165917.244635,-37.0,3.0,-1009.0,0,0,0,-0.5017068386077881,-2.8142809867858887,5.526954412460327
1762165917.3451376,-35.0,12.0,-997.0,0,0,0,-0.5017068386077881,-2.8142809867858887,5.526954412460327
1762165917.445544,-36.0,22.0,-972.0,0,0,0,-0.5017068386077881,-2.8142809867858887,5.526954412460327
1762165917.5458574,-39.0,15.0,-1000.0,0,0,0,-0.5017068386077881,-2.8142809867858887,5.526954412460327
1762165917.6463199,-39.0,35.0,-992.0,0,0,0,-0.5017068386077881,-2.8142809867858887,5.526954412460327
1762165917.7464957,-14.0,31.0,-988.0,0,0,0,-0.5017068386077881,-2.8142809867858887,5.526954412460327
1762165917.846863,-3.0,27.0,-959.0,0,0,0,-0.5017068386077881,-2.8142809867858887,5.526954412460327
1762165917.9471004,-22.0,17.0,-974.0,0,0,0,-0.5017068386077881,-2.8142809867858887,5.526954412460327
1762165918.0477405,-17.0,9.0,-1008.0,0,0,0,-0.5017068386077881,-2.8142809867858887,5.526954412460327
1762165918.1481729,-28.0,14.0,-977.0,0,0,-1,-0.5017068386077881,-2.8142809867858887,5.4265220165252686
1762165918.248471,11.0,9.0,-1014.0,0,0,0,-0.5017068386077881,-2.8142809867858887,5.4265220165252686
1762165918.3492434,-25.0,-6.0,-1027.0,0,0,0,-0.5017068386077881,-2.8142809867858887,5.4265220165252686
1762165918.4497645,-25.0,-6.0,-1027.0,0,0,0,-0.5017068386077881,-2.8142809867858887,5.4265220165252686
1762165918.5504978,3.0,-8.0,-1025.0,0,0,0,-0.5017068386077881,-2.8142809867858887,5.4265220165252686
1762165918.6508362,-6.0,24.0,-1016.0,0,0,0,-0.5017068386077881,-2.8142809867858887,5.4265220165252686
1762165918.7515876,-23.0,37.0,-1032.0,0,0,0,-0.5017068386077881,-2.8142809867858887,5.4265220165252686
1762165918.8525114,-6.0,21.0,-996.0,0,0,0,-0.5017068386077881,-2.8142809867858887,5.4265220165252686
1762165918.9528892,-5.0,20.0,-1015.0,0,0,0,-0.5017068386077881,-2.8142809867858887,5.4265220165252686
1762165919.053165,-41.0,16.0,-946.0,0,0,0,-0.5017068386077881,-2.8142809867858887,5.4265220165252686
1762165919.1538546,6.0,-15.0,-992.0,0,0,0,-0.5017068386077881,-2.8142809867858887,5.4265220165252686
1762165919.2542758,-2.0,-6.0,-964.0,0,0,0,-0.5017068386077881,-2.8142809867858887,5.4265220165252686
1762165919.354937,-24.0,12.0,-1001.0,0,0,0,-0.5017068386077881,-2.8142809867858887,5.4265220165252686
1762165919.455328,-13.0,4.0,-1014.0,0,0,0,-0.5017068386077881,-2.8142809867858887,5.4265220165252686
1762165919.5555537,-32.0,20.0,-988.0,0,0,0,-0.5017068386077881,-2.8142809867858887,5.4265220165252686
1762165919.6558936,-44.0,24.0,-990.0,0,0,0,-0.5017068386077881,-2.8142809867858887,5.4265220165252686
1762165919.7560506,-34.0,-12.0,-951.0,0,0,0,-0.5017068386077881,-2.8142809867858887,5.4265220165252686
1762165919.85675,-17.0,11.0,-973.0,0,0,0,-0.5017068386077881,-2.8142809867858887,5.4265220165252686
1762165919.957372,-8.0,7.0,-971.0,0,0,0,-0.5017068386077881,-2.8142809867858887,5.4265220165252686
1762165920.05807,-28.0,15.0,-1047.0,0,0,0,-0.5017068386077881,-2.8142809867858887,5.4265220165252686
1762165920.158444,-61.0,18.0,-1022.0,-1,0,0,-0.6020808219909668,-2.8142809867858887,5.4265220165252686
1762165920.2587733,-45.0,9.0,-1039.0,-1,0,0,-0.7024102210998535,-2.8142809867858887,5.4265220165252686
1762165920.3589582,-22.0,-28.0,-950.0,-1,1,0,-0.8025951385498047,-2.7140960693359375,5.4265220165252686
1762165920.4596112,10.0,23.0,-977.0,-2,0,0,-1.0039010047912598,-2.7140960693359375,5.4265220165252686
1762165920.5599966,-50.0,42.0,-1000.0,-2,0,0,-1.204671859741211,-2.7140960693359375,5.4265220165252686
1762165920.6604698,-45.0,3.0,-1049.0,-1,0,0,-1.305145025253296,-2.7140960693359375,5.4265220165252686
1762165920.7612622,-53.0,41.0,-1047.0,-2,0,0,-1.5067298412322998,-2.7140960693359375,5.4265220165252686
1762165920.861749,-20.0,32.0,-1005.0,-2,0,0,-1.7077033519744873,-2.7140960693359375,5.4265220165252686
1762165920.9622645,-13.0,-2.0,-1014.0,-2,0,0,-1.9087345600128174,-2.7140960693359375,5.4265220165252686
1762165921.0624776,-14.0,5.0,-991.0,-3,0,0,-2.209373712539673,-2.7140960693359375,5.4265220165252686
1762165921.1630275,-10.0,-5.0,-978.0,-3,0,0,-2.51102352142334,-2.7140960693359375,5.4265220165252686
1762165921.263293,2.0,34.0,-952.0,-3,0,0,-2.8118200302124023,-2.7140960693359375,5.4265220165252686
1762165921.3639517,-9.0,6.0,-1011.0,-2,0,0,-3.0131373405456543,-2.7140960693359375,5.4265220165252686
1762165921.4642782,-21.0,7.0,-1006.0,-2,1,0,-3.2137904167175293,-2.61376953125,5.4265220165252686
1762165921.5648172,-23.0,14.0,-965.0,-2,1,0,-3.4148683547973633,-2.513230562210083,5.4265220165252686
1762165921.6653352,-4.0,14.0,-978.0,-2,1,0,-3.6159043312072754,-2.412712574005127,5.4265220165252686
1762165921.7657185,-56.0,0.0,-993.0,-2,1,0,-3.8166708946228027,-2.3123292922973633,5.4265220165252686
1762165921.8660038,-56.0,0.0,-993.0,-2,1,0,-4.017241477966309,-2.2120440006256104,5.4265220165252686
1762165921.9664612,1.0,7.0,-994.0,-2,1,0,-4.218156337738037,-2.111586570739746,5.4265220165252686
1762165922.066798,-3.0,41.0,-985.0,-1,1,0,-4.318493127822876,-2.0112497806549072,5.4265220165252686
1762165922.1671393,22.0,16.0,-978.0,0,1,0,-4.318493127822876,-1.9109084606170654,5.4265220165252686
1762165922.267748,-10.0,8.0,-1047.0,0,0,0,-4.318493127822876,-1.9109084606170654,5.4265220165252686
1762165922.3685324,-27.0,16.0,-1019.0,0,0,0,-4.318493127822876,-1.9109084606170654,5.4265220165252686
1762165922.4689717,-1.0,6.0,-1026.0,0,0,0,-4.318493127822876,-1.9109084606170654,5.4265220165252686
1762165922.569592,1.0,-20.0,-998.0,0,0,0,-4.318493127822876,-1.9109084606170654,5.4265220165252686
1762165922.6698005,-27.0,27.0,-1004.0,0,0,0,-4.318493127822876,-1.9109084606170654,5.4265220165252686
1762165922.7702,3.0,0.0,-977.0,0,0,0,-4.318493127822876,-1.9109084606170654,5.4265220165252686
1762165922.8706388,-23.0,-2.0,-987.0,0,0,0,-4.318493127822876,-1.9109084606170654,5.4265220165252686
1762165922.9715552,-12.0,7.0,-983.0,0,0,0,-4.318493127822876,-1.9109084606170654,5.4265220165252686
1762165923.0720484,-17.0,10.0,-1004.0,0,0,0,-4.318493127822876,-1.9109084606170654,5.4265220165252686
1762165923.172418,-11.0,0.0,-992.0,0,0,0,-4.318493127822876,-1.9109084606170654,5.4265220165252686
1762165923.2732553,8.0,12.0,-996.0,0,0,0,-4.318493127822876,-1.9109084606170654,5.4265220165252686
1762165923.3738158,-20.0,1.0,-980.0,0,0,0,-4.318493127822876,-1.9109084606170654,5.4265220165252686
1762165923.4741938,-12.0,8.0,-1021.0,0,0,0,-4.318493127822876,-1.9109084606170654,5.4265220165252686
1762165923.574725,-5.0,0.0,-980.0,0,0,0,-4.318493127822876,-1.9109084606170654,5.4265220165252686
1762165923.6754115,-22.0,10.0,-1011.0,0,0,0,-4.318493127822876,-1.9109084606170654,5.4265220165252686
1762165923.7756605,-26.0,-3.0,-978.0,0,0,0,-4.318493127822876,-1.9109084606170654,5.4265220165252686
1762165923.8759246,-18.0,9.0,-990.0,0,0,0,-4.318493127822876,-1.9109084606170654,5.4265220165252686
1762165923.9762306,12.0,0.0,-965.0,0,0,0,-4.318493127822876,-1.9109084606170654,5.4265220165252686
1762165924.0771127,-17.0,12.0,-985.0,0,0,0,-4.318493127822876,-1.9109084606170654,5.4265220165252686
1762165924.1772957,-4.0,13.0,-1008.0,0,0,0,-4.318493127822876,-1.9109084606170654,5.4265220165252686
1762165924.2777202,-28.0,-11.0,-1011.0,0,0,0,-4.318493127822876,-1.9109084606170654,5.4265220165252686
1762165924.3779821,-2.0,-21.0,-996.0,0,0,0,-4.318493127822876,-1.9109084606170654,5.4265220165252686
1762165924.478314,-16.0,19.0,-1026.0,0,0,0,-4.318493127822876,-1.9109084606170654,5.4265220165252686
1762165924.5787792,-14.0,-5.0,-1023.0,0,0,0,-4.318493127822876,-1.9109084606170654,5.4265220165252686
1762165924.6789336,-5.0,17.0,-1024.0,0,0,0,-4.318493127822876,-1.9109084606170654,5.4265220165252686
1762165924.7796984,-8.0,27.0,-1022.0,0,0,0,-4.318493127822876,-1.9109084606170654,5.4265220165252686
1762165924.8803482,-16.0,13.0,-1032.0,0,0,0,-4.318493127822876,-1.9109084606170654,5.4265220165252686
1762165924.9805794,14.0,-1.0,-1008.0,0,0,0,-4.318493127822876,-1.9109084606170654,5.4265220165252686
1762165925.0807168,6.0,9.0,-1022.0,0,0,0,-4.318493127822876,-1.9109084606170654,5.4265220165252686
1762165925.1813052,6.0,9.0,-1022.0,0,0,0,-4.318493127822876,-1.9109084606170654,5.4265220165252686
1762165925.2818594,-15.0,11.0,-990.0,0,0,0,-4.318493127822876,-1.9109084606170654,5.4265220165252686
1762165925.3820953,-23.0,-11.0,-994.0,0,0,0,-4.318493127822876,-1.9109084606170654,5.4265220165252686
1762165925.4824493,-17.0,-2.0,-998.0,0,0,0,-4.318493127822876,-1.9109084606170654,5.4265220165252686
1762165925.5831268,-7.0,1.0,-976.0,0,0,0,-4.318493127822876,-1.9109084606170654,5.4265220165252686
1762165925.6834934,1.0,4.0,-996.0,0,0,0,-4.318493127822876,-1.9109084606170654,5.4265220165252686
1762165925.7840517,0.0,-12.0,-966.0,0,0,0,-4.318493127822876,-1.9109084606170654,5.4265220165252686
1762165925.884214,1.0,-1.0,-983.0,0,0,0,-4.318493127822876,-1.9109084606170654,5.4265220165252686
1762165925.9847326,-35.0,8.0,-1004.0,0,0,0,-4.318493127822876,-1.9109084606170654,5.4265220165252686
1762165926.085219,-3.0,10.0,-1001.0,0,0,0,-4.318493127822876,-1.9109084606170654,5.4265220165252686
1762165926.1859095,1.0,5.0,-1012.0,0,0,0,-4.318493127822876,-1.9109084606170654,5.4265220165252686
1762165926.2864046,-12.0,17.0,-996.0,0,0,0,-4.318493127822876,-1.9109084606170654,5.4265220165252686
1762165926.3865588,-3.0,-10.0,-994.0,0,0,0,-4.318493127822876,-1.9109084606170654,5.4265220165252686
1762165926.4869552,-25.0,12.0,-1023.0,0,0,0,-4.318493127822876,-1.9109084606170654,5.4265220165252686
1762165926.5873468,1.0,13.0,-1009.0,0,0,0,-4.318493127822876,-1.9109084606170654,5.4265220165252686
1762165926.6879013,-3.0,11.0,-995.0,0,0,0,-4.318493127822876,-1.9109084606170654,5.4265220165252686
1762165926.7882783,-5.0,15.0,-1000.0,0,0,0,-4.318493127822876,-1.9109084606170654,5.4265220165252686
1762165926.8886907,0.0,0.0,-1002.0,0,0,0,-4.318493127822876,-1.9109084606170654,5.4265220165252686
1762165926.989261,-3.0,13.0,-1002.0,0,0,0,-4.318493127822876,-1.9109084606170654,5.4265220165252686
1762165927.0897624,-9.0,5.0,-1013.0,0,0,0,-4.318493127822876,-1.9109084606170654,5.4265220165252686
1762165927.190461,-45.0,-11.0,-973.0,0,0,0,-4.318493127822876,-1.9109084606170654,5.4265220165252686
1762165927.290819,0.0,0.0,-1002.0,0,0,0,-4.318493127822876,-1.9109084606170654,5.4265220165252686
1762165927.3915694,1.0,23.0,-1023.0,0,0,0,-4.318493127822876,-1.9109084606170654,5.4265220165252686
1762165927.4918005,-10.0,-4.0,-1006.0,0,0,0,-4.318493127822876,-1.9109084606170654,5.4265220165252686
1762165927.5920744,-6.0,6.0,-1015.0,0,0,0,-4.318493127822876,-1.9109084606170654,5.4265220165252686
1762165927.692364,24.0,13.0,-999.0,0,0,0,-4.318493127822876,-1.9109084606170654,5.4265220165252686
1762165927.7927585,-2.0,-6.0,-988.0,0,0,0,-4.318493127822876,-1.9109084606170654,5.4265220165252686
1762165927.893012,-17.0,-9.0,-989.0,0,0,0,-4.318493127822876,-1.9109084606170654,5.4265220165252686
1762165927.9933493,10.0,5.0,-1002.0,0,0,0,-4.318493127822876,-1.9109084606170654,5.4265220165252686
1762165928.0936518,10.0,5.0,-1002.0,0,0,0,-4.318493127822876,-1.9109084606170654,5.4265220165252686
1762165928.19415,-7.0,-12.0,-990.0,0,0,0,-4.318493127822876,-1.9109084606170654,5.4265220165252686
1762165928.2947376,-7.0,-12.0,-990.0,0,0,0,-4.318493127822876,-1.9109084606170654,5.4265220165252686
1762165928.395469,-14.0,-7.0,-1015.0,0,0,0,-4.318493127822876,-1.9109084606170654,5.4265220165252686
1762165928.496017,-14.0,-7.0,-1015.0,0,0,0,-4.318493127822876,-1.9109084606170654,5.4265220165252686
1762165928.5966916,-21.0,5.0,-993.0,0,0,0,-4.318493127822876,-1.9109084606170654,5.4265220165252686
1762165928.6969552,8.0,-13.0,-991.0,0,0,0,-4.318493127822876,-1.9109084606170654,5.4265220165252686
1762165928.7973824,-19.0,-1.0,-1013.0,0,0,0,-4.318493127822876,-1.9109084606170654,5.4265220165252686
1762165928.8977304,-39.0,22.0,-969.0,0,0,0,-4.318493127822876,-1.9109084606170654,5.4265220165252686
1762165928.9982572,-21.0,-10.0,-980.0,0,0,0,-4.318493127822876,-1.9109084606170654,5.4265220165252686
1762165929.0988412,5.0,0.0,-996.0,0,0,0,-4.318493127822876,-1.9109084606170654,5.4265220165252686
1762165929.1993182,17.0,-20.0,-989.0,0,0,0,-4.318493127822876,-1.9109084606170654,5.4265220165252686
1762165929.3000233,-8.0,-20.0,-995.0,0,0,0,-4.318493127822876,-1.9109084606170654,5.4265220165252686
1762165929.4004412,-1.0,7.0,-999.0,0,0,0,-4.318493127822876,-1.9109084606170654,5.4265220165252686
1762165929.5008018,-52.0,-6.0,-1025.0,0,0,0,-4.318493127822876,-1.9109084606170654,5.4265220165252686
1762165929.6011977,-19.0,-3.0,-1017.0,0,0,0,-4.318493127822876,-1.9109084606170654,5.4265220165252686
1762165929.7021034,-21.0,-6.0,-1000.0,0,0,0,-4.318493127822876,-1.9109084606170654,5.4265220165252686
1762165929.8026555,1.0,9.0,-1029.0,0,0,0,-4.318493127822876,-1.9109084606170654,5.4265220165252686
1762165929.9032009,-11.0,4.0,-1023.0,0,0,0,-4.318493127822876,-1.9109084606170654,5.4265220165252686
1762165930.0036316,-6.0,7.0,-1009.0,0,0,0,-4.318493127822876,-1.9109084606170654,5.4265220165252686
1762165930.1039357,10.0,-10.0,-981.0,0,0,0,-4.318493127822876,-1.9109084606170654,5.4265220165252686
1762165930.2046077,-25.0,0.0,-1027.0,0,0,0,-4.318493127822876,-1.9109084606170654,5.4265220165252686
1762165930.3054888,-10.0,0.0,-990.0,0,0,0,-4.318493127822876,-1.9109084606170654,5.4265220165252686
1762165930.4057422,-3.0,0.0,-998.0,0,0,0,-4.318493127822876,-1.9109084606170654,5.4265220165252686
1762165930.5062664,-26.0,-10.0,-991.0,0,0,0,-4.318493127822876,-1.9109084606170654,5.4265220165252686
1762165930.606664,14.0,-10.0,-1014.0,0,0,0,-4.318493127822876,-1.9109084606170654,5.4265220165252686
1762165930.7072368,-12.0,-4.0,-991.0,0,0,0,-4.318493127822876,-1.9109084606170654,5.4265220165252686
1762165930.8080223,-2.0,1.0,-1016.0,0,0,0,-4.318493127822876,-1.9109084606170654,5.4265220165252686
1762165930.9086862,-3.0,-8.0,-964.0,0,0,0,-4.318493127822876,-1.9109084606170654,5.4265220165252686
1762165931.008986,-12.0,6.0,-995.0,0,0,0,-4.318493127822876,-1.9109084606170654,5.4265220165252686
1762165931.1097865,-19.0,-17.0,-1009.0,0,0,0,-4.318493127822876,-1.9109084606170654,5.4265220165252686
1762165931.210123,18.0,-34.0,-984.0,0,0,0,-4.318493127822876,-1.9109084606170654,5.4265220165252686
1762165931.3104947,8.0,0.0,-1007.0,0,0,0,-4.318493127822876,-1.9109084606170654,5.4265220165252686
1762165931.4114652,-15.0,9.0,-1053.0,0,0,0,-4.318493127822876,-1.9109084606170654,5.4265220165252686
1762165931.5121,2.0,1.0,-1020.0,0,0,0,-4.318493127822876,-1.9109084606170654,5.4265220165252686
1762165931.6124027,-14.0,-10.0,-991.0,0,0,0,-4.318493127822876,-1.9109084606170654,5.4265220165252686
1762165931.712931,-19.0,10.0,-971.0,0,0,0,-4.318493127822876,-1.9109084606170654,5.4265220165252686
1762165931.8133514,-19.0,10.0,-971.0,0,0,0,-4.318493127822876,-1.9109084606170654,5.4265220165252686
1762165931.9137907,-29.0,19.0,-978.0,0,0,0,-4.318493127822876,-1.9109084606170654,5.4265220165252686
1762165932.0144813,-15.0,-4.0,-1006.0,0,0,0,-4.318493127822876,-1.9109084606170654,5.4265220165252686
1762165932.1150434,0.0,-8.0,-977.0,0,0,0,-4.318493127822876,-1.9109084606170654,5.4265220165252686
1762165932.2152839,-4.0,0.0,-999.0,0,0,0,-4.318493127822876,-1.9109084606170654,5.4265220165252686
1762165932.3158631,-7.0,2.0,-1004.0,0,0,0,-4.318493127822876,-1.9109084606170654,5.4265220165252686
1762165932.4162512,-7.0,-13.0,-995.0,0,0,0,-4.318493127822876,-1.9109084606170654,5.4265220165252686
1762165932.516798,0.0,-4.0,-988.0,0,0,0,-4.318493127822876,-1.9109084606170654,5.4265220165252686
1762165932.617525,-41.0,-17.0,-1011.0,0,0,0,-4.318493127822876,-1.9109084606170654,5.4265220165252686
1762165932.7181516,26.0,-12.0,-1002.0,0,1,0,-4.318493127822876,-1.8102819919586182,5.4265220165252686
1762165932.8184063,0.0,4.0,-1004.0,0,1,0,-4.318493127822876,-1.7100272178649902,5.4265220165252686
1762165932.9187384,-14.0,-8.0,-998.0,0,1,0,-4.318493127822876,-1.6096951961517334,5.4265220165252686
1762165933.0191488,-6.0,6.0,-1020.0,0,1,0,-4.318493127822876,-1.5092847347259521,5.4265220165252686
1762165933.119502,-9.0,5.0,-984.0,0,2,0,-4.318493127822876,-1.3085782527923584,5.4265220165252686
1762165933.2201152,4.0,9.0,-989.0,0,2,0,-4.318493127822876,-1.1073520183563232,5.4265220165252686
1762165933.320449,-1.0,-1.0,-1013.0,0,2,0,-4.318493127822876,-0.906684160232544,5.4265220165252686
1762165933.4208703,9.0,4.0,-1007.0,0,2,0,-4.318493127822876,-0.7058417797088623,5.4265220165252686
1762165933.521105,14.0,20.0,-1009.0,0,2,0,-4.318493127822876,-0.5053722858428955,5.4265220165252686
1762165933.6216743,7.0,-9.0,-987.0,0,2,0,-4.318493127822876,-0.3042337894439697,5.4265220165252686
1762165933.7221751,10.0,6.0,-1005.0,0,2,0,-4.318493127822876,-0.10323214530944824,5.4265220165252686
1762165933.8229928,32.0,2.0,-1032.0,0,2,0,-4.318493127822876,0.0984032154083252,5.4265220165252686
1762165933.9232733,12.0,-10.0,-996.0,0,2,0,-4.318493127822876,0.298964262008667,5.4265220165252686
1762165934.023497,-4.0,-2.0,-1003.0,0,2,0,-4.318493127822876,0.49941182136535645,5.4265220165252686
1762165934.1236646,-3.0,-9.0,-968.0,0,2,0,-4.318493127822876,0.69974684715271,5.4265220165252686
1762165934.2240644,9.0,-15.0,-996.0,0,2,0,-4.318493127822876,0.9005463123321533,5.4265220165252686
1762165934.3244565,-34.0,-3.0,-1001.0,0,2,0,-4.318493127822876,1.1013305187225342,5.4265220165252686
1762165934.4252284,8.0,11.0,-998.0,0,2,0,-4.318493127822876,1.3028743267059326,5.4265220165252686
1762165934.5256772,0.0,14.0,-975.0,0,2,0,-4.318493127822876,1.5037720203399658,5.4265220165252686
1762165934.6259847,16.0,5.0,-1020.0,0,2,0,-4.318493127822876,1.7043869495391846,5.4265220165252686
1762165934.7268326,-17.0,6.0,-1008.0,0,2,0,-4.318493127822876,1.9060828685760498,5.4265220165252686
1762165934.8275142,17.0,19.0,-962.0,0,1,0,-4.318493127822876,2.0067644119262695,5.4265220165252686
1762165934.927676,-43.0,1.0,-993.0,0,0,0,-4.318493127822876,2.0067644119262695,5.4265220165252686
1762165935.0281012,-43.0,1.0,-993.0,0,0,0,-4.318493127822876,2.0067644119262695,5.4265220165252686
1762165935.1287167,-24.0,-10.0,-994.0,0,0,0,-4.318493127822876,2.0067644119262695,5.4265220165252686
1762165935.229323,-22.0,17.0,-1014.0,0,0,0,-4.318493127822876,2.0067644119262695,5.4265220165252686
1762165935.329886,-22.0,17.0,-1014.0,0,0,0,-4.318493127822876,2.0067644119262695,5.4265220165252686
1762165935.4302526,-42.0,9.0,-1022.0,0,0,0,-4.318493127822876,2.0067644119262695,5.4265220165252686
1762165935.5305004,-20.0,7.0,-955.0,0,0,0,-4.318493127822876,2.0067644119262695,5.4265220165252686
1762165935.630803,-14.0,3.0,-976.0,0,0,0,-4.318493127822876,2.0067644119262695,5.4265220165252686
1762165935.7316067,-2.0,-14.0,-982.0,0,0,0,-4.318493127822876,2.0067644119262695,5.4265220165252686
1762165935.8319502,-7.0,9.0,-1013.0,0,0,0,-4.318493127822876,2.0067644119262695,5.4265220165252686
1762165935.9322276,-10.0,11.0,-997.0,0,0,0,-4.318493127822876,2.0067644119262695,5.4265220165252686
1762165936.0324728,-1.0,-19.0,-1005.0,0,0,0,-4.318493127822876,2.0067644119262695,5.4265220165252686
1762165936.1328435,-29.0,2.0,-989.0,0,0,0,-4.318493127822876,2.0067644119262695,5.4265220165252686
1762165936.2332518,-24.0,5.0,-1023.0,0,0,0,-4.318493127822876,2.0067644119262695,5.4265220165252686
1762165936.33347,-31.0,5.0,-1011.0,0,0,0,-4.318493127822876,2.0067644119262695,5.4265220165252686
1762165936.433709,-2.0,4.0,-983.0,0,0,0,-4.318493127822876,2.0067644119262695,5.4265220165252686
1762165936.5342631,-36.0,12.0,-985.0,0,0,0,-4.318493127822876,2.0067644119262695,5.4265220165252686
1762165936.63487,-29.0,-13.0,-994.0,0,0,0,-4.318493127822876,2.0067644119262695,5.4265220165252686
1762165936.735258,-10.0,-3.0,-992.0,0,0,0,-4.318493127822876,2.0067644119262695,5.4265220165252686
1762165936.8360903,-18.0,-2.0,-1038.0,0,0,0,-4.318493127822876,2.0067644119262695,5.4265220165252686
1762165936.9365566,0.0,2.0,-970.0,0,0,0,-4.318493127822876,2.0067644119262695,5.4265220165252686
1762165937.0371165,-20.0,0.0,-996.0,0,0,0,-4.318493127822876,2.0067644119262695,5.4265220165252686
1762165937.1376164,-15.0,33.0,-998.0,0,0,0,-4.318493127822876,2.0067644119262695,5.4265220165252686
1762165937.2381573,-6.0,3.0,-1002.0,0,0,0,-4.318493127822876,2.0067644119262695,5.4265220165252686
1762165937.3383913,-3.0,28.0,-1012.0,0,0,0,-4.318493127822876,2.0067644119262695,5.4265220165252686
1762165937.4390528,-13.0,0.0,-1004.0,0,0,0,-4.318493127822876,2.0067644119262695,5.4265220165252686
1762165937.539402,-12.0,18.0,-992.0,0,0,0,-4.318493127822876,2.0067644119262695,5.4265220165252686
1762165937.6396701,-26.0,9.0,-1017.0,0,0,0,-4.318493127822876,2.0067644119262695,5.4265220165252686
1762165937.7401702,-22.0,4.0,-1002.0,0,0,0,-4.318493127822876,2.0067644119262695,5.4265220165252686
1762165937.8403497,-9.0,-10.0,-983.0,0,0,0,-4.318493127822876,2.0067644119262695,5.4265220165252686
1762165937.9405885,-9.0,8.0,-1004.0,0,0,0,-4.318493127822876,2.0067644119262695,5.4265220165252686
1762165938.04092,-3.0,3.0,-977.0,0,0,0,-4.318493127822876,2.0067644119262695,5.4265220165252686
1762165938.1411295,-3.0,3.0,-977.0,0,0,0,-4.318493127822876,2.0067644119262695,5.4265220165252686
1762165938.241511,-32.0,-26.0,-1014.0,0,0,0,-4.318493127822876,2.0067644119262695,5.4265220165252686
1762165938.342186,-47.0,15.0,-1013.0,0,0,0,-4.318493127822876,2.0067644119262695,5.4265220165252686
1762165938.4424834,-32.0,6.0,-1012.0,0,0,0,-4.318493127822876,2.0067644119262695,5.4265220165252686
1762165938.5432703,-19.0,11.0,-1023.0,0,0,0,-4.318493127822876,2.0067644119262695,5.4265220165252686
1762165938.6441855,0.0,-9.0,-982.0,0,0,0,-4.318493127822876,2.0067644119262695,5.4265220165252686
1762165938.7448647,9.0,-5.0,-971.0,0,0,0,-4.318493127822876,2.0067644119262695,5.4265220165252686
1762165938.8451781,-1.0,-14.0,-990.0,0,0,0,-4.318493127822876,2.0067644119262695,5.4265220165252686
1762165938.9453921,-5.0,3.0,-994.0,0,0,0,-4.318493127822876,2.0067644119262695,5.4265220165252686
1762165939.045678,-32.0,20.0,-1014.0,0,0,0,-4.318493127822876,2.0067644119262695,5.4265220165252686
1762165939.1461432,-23.0,-7.0,-998.0,0,0,0,-4.318493127822876,2.0067644119262695,5.4265220165252686
1762165939.2465055,5.0,-1.0,-1035.0,0,0,0,-4.318493127822876,2.0067644119262695,5.4265220165252686
1762165939.3471093,-20.0,9.0,-992.0,0,0,0,-4.318493127822876,2.0067644119262695,5.4265220165252686
1762165939.447928,-24.0,-11.0,-1003.0,0,0,0,-4.318493127822876,2.0067644119262695,5.4265220165252686
1762165939.5482304,17.0,-19.0,-984.0,0,0,0,-4.318493127822876,2.0067644119262695,5.4265220165252686
1762165939.648692,-17.0,8.0,-982.0,0,0,0,-4.318493127822876,2.0067644119262695,5.4265220165252686
1762165939.7494195,-7.0,1.0,-994.0,0,0,0,-4.318493127822876,2.0067644119262695,5.4265220165252686
1762165939.8495977,-17.0,17.0,-1017.0,0,0,0,-4.318493127822876,2.0067644119262695,5.4265220165252686
1762165939.9498935,-20.0,-9.0,-1012.0,0,0,0,-4.318493127822876,2.0067644119262695,5.4265220165252686
1762165940.0502207,-18.0,0.0,-993.0,0,0,0,-4.318493127822876,2.0067644119262695,5.4265220165252686
1762165940.1505818,-6.0,-1.0,-989.0,0,0,0,-4.318493127822876,2.0067644119262695,5.4265220165252686
1762165940.2509947,0.0,-12.0,-986.0,0,0,0,-4.318493127822876,2.0067644119262695,5.4265220165252686
1762165940.351787,0.0,-12.0,-980.0,0,0,0,-4.318493127822876,2.0067644119262695,5.4265220165252686
1762165940.4521918,-13.0,-8.0,-993.0,0,0,0,-4.318493127822876,2.0067644119262695,5.4265220165252686
1762165940.5524633,-16.0,9.0,-1011.0,0,0,0,-4.318493127822876,2.0067644119262695,5.4265220165252686
1762165940.6530786,-13.0,8.0,-1033.0,0,0,0,-4.318493127822876,2.0067644119262695,5.4265220165252686
1762165940.7537901,-17.0,-12.0,-986.0,0,0,0,-4.318493127822876,2.0067644119262695,5.4265220165252686
1762165940.8541765,-14.0,-1.0,-1001.0,0,0,0,-4.318493127822876,2.0067644119262695,5.4265220165252686
1762165940.9544885,-16.0,4.0,-993.0,0,0,0,-4.318493127822876,2.0067644119262695,5.4265220165252686
1762165941.0548782,-41.0,8.0,-993.0,0,0,0,-4.318493127822876,2.0067644119262695,5.4265220165252686
1762165941.1555655,-34.0,12.0,-997.0,0,0,0,-4.318493127822876,2.0067644119262695,5.4265220165252686
1762165941.255889,-18.0,22.0,-1027.0,0,0,0,-4.318493127822876,2.0067644119262695,5.4265220165252686
1762165941.3562868,-25.0,-8.0,-1002.0,0,0,0,-4.318493127822876,2.0067644119262695,5.4265220165252686
1762165941.4569123,-28.0,2.0,-1013.0,0,0,0,-4.318493127822876,2.0067644119262695,5.4265220165252686
1762165941.557106,-20.0,1.0,-1002.0,0,0,0,-4.318493127822876,2.0067644119262695,5.4265220165252686
1762165941.657786,-4.0,-3.0,-991.0,0,0,0,-4.318493127822876,2.0067644119262695,5.4265220165252686
1762165941.7584066,-8.0,-17.0,-993.0,0,0,0,-4.318493127822876,2.0067644119262695,5.4265220165252686
1762165941.8587441,-8.0,-17.0,-993.0,0,0,0,-4.318493127822876,2.0067644119262695,5.4265220165252686
1762165941.9595482,0.0,2.0,-1006.0,0,0,0,-4.318493127822876,2.0067644119262695,5.4265220165252686
1762165942.0597875,-6.0,0.0,-1011.0,0,0,0,-4.318493127822876,2.0067644119262695,5.4265220165252686
1762165942.1605928,-15.0,-1.0,-991.0,0,0,0,-4.318493127822876,2.0067644119262695,5.4265220165252686
1762165942.261481,-31.0,13.0,-1000.0,0,0,0,-4.318493127822876,2.0067644119262695,5.4265220165252686
1762165942.3622754,-8.0,-6.0,-1008.0,0,0,0,-4.318493127822876,2.0067644119262695,5.4265220165252686
1762165942.462522,2.0,-3.0,-1003.0,0,0,0,-4.318493127822876,2.0067644119262695,5.4265220165252686
1762165942.5629103,-13.0,-1.0,-1005.0,0,0,0,-4.318493127822876,2.0067644119262695,5.4265220165252686
1762165942.6636717,-15.0,10.0,-1000.0,0,0,0,-4.318493127822876,2.0067644119262695,5.4265220165252686
1762165942.7641761,-2.0,-6.0,-1005.0,0,0,0,-4.318493127822876,2.0067644119262695,5.4265220165252686
1762165942.8647048,-12.0,15.0,-999.0,0,0,0,-4.318493127822876,2.0067644119262695,5.4265220165252686
1762165942.9651067,2.0,-12.0,-996.0,0,0,0,-4.318493127822876,2.0067644119262695,5.4265220165252686
1762165943.0652838,-6.0,-13.0,-994.0,0,0,0,-4.318493127822876,2.0067644119262695,5.4265220165252686
1762165943.1656818,2.0,2.0,-1009.0,0,0,0,-4.318493127822876,2.0067644119262695,5.4265220165252686
1762165943.2659085,-3.0,3.0,-1011.0,0,0,0,-4.318493127822876,2.0067644119262695,5.4265220165252686
1762165943.3661435,-13.0,3.0,-992.0,0,0,0,-4.318493127822876,2.0067644119262695,5.4265220165252686
1762165943.4671519,-15.0,4.0,-1033.0,0,0,0,-4.318493127822876,2.0067644119262695,5.4265220165252686
1762165943.567998,-24.0,-19.0,-1029.0,0,0,0,-4.318493127822876,2.0067644119262695,5.4265220165252686
1762165943.668139,-14.0,-18.0,-997.0,0,0,0,-4.318493127822876,2.0067644119262695,5.4265220165252686
1762165943.76839,-7.0,-1.0,-995.0,0,0,0,-4.318493127822876,2.0067644119262695,5.4265220165252686
1762165943.868831,-3.0,10.0,-1019.0,0,0,0,-4.318493127822876,2.0067644119262695,5.4265220165252686
1762165943.9690638,-19.0,-3.0,-1006.0,0,0,0,-4.318493127822876,2.0067644119262695,5.4265220165252686
1762165944.0693793,24.0,-19.0,-987.0,0,0,0,-4.318493127822876,2.0067644119262695,5.4265220165252686
1762165944.1702275,-18.0,3.0,-1003.0,0,0,0,-4.318493127822876,2.0067644119262695,5.4265220165252686
1762165944.2706285,-2.0,-7.0,-1000.0,0,0,0,-4.318493127822876,2.0067644119262695,5.4265220165252686
1762165944.3708308,8.0,-12.0,-991.0,0,0,0,-4.318493127822876,2.0067644119262695,5.4265220165252686
1762165944.4715223,-23.0,-6.0,-1016.0,0,0,0,-4.318493127822876,2.0067644119262695,5.4265220165252686
1762165944.5716908,-6.0,-6.0,-999.0,0,0,0,-4.318493127822876,2.0067644119262695,5.4265220165252686
1762165944.672042,-6.0,-14.0,-995.0,0,0,0,-4.318493127822876,2.0067644119262695,5.4265220165252686
1762165944.7726004,-18.0,7.0,-1011.0,0,0,0,-4.318493127822876,2.0067644119262695,5.4265220165252686
1762165944.873475,-2.0,-5.0,-1024.0,0,0,0,-4.318493127822876,2.0067644119262695,5.4265220165252686
1762165944.9740982,15.0,0.0,-995.0,0,0,0,-4.318493127822876,2.0067644119262695,5.4265220165252686
1762165945.0742435,3.0,0.0,-1017.0,0,0,0,-4.318493127822876,2.0067644119262695,5.4265220165252686
1762165945.1748343,3.0,0.0,-1017.0,0,0,0,-4.318493127822876,2.0067644119262695,5.4265220165252686
1762165945.2755303,-6.0,-10.0,-1001.0,0,0,0,-4.318493127822876,2.0067644119262695,5.4265220165252686
1762165945.3763938,-8.0,16.0,-991.0,0,0,0,-4.318493127822876,2.0067644119262695,5.4265220165252686
1762165945.4771593,-7.0,-7.0,-992.0,1,0,0,-4.2177276611328125,2.0067644119262695,5.4265220165252686
1762165945.5773766,-17.0,-12.0,-1018.0,1,0,0,-4.1175103187561035,2.0067644119262695,5.4265220165252686
1762165945.67758,-6.0,-25.0,-1010.0,2,0,0,-3.9171032905578613,2.0067644119262695,5.4265220165252686
1762165945.7777312,8.0,-3.0,-1022.0,2,0,0,-3.716801166534424,2.0067644119262695,5.4265220165252686
1762165945.878328,-6.0,-4.0,-1023.0,2,0,0,-3.5156073570251465,2.0067644119262695,5.4265220165252686
1762165945.9786649,-25.0,-11.0,-1022.0,2,0,0,-3.3149337768554688,2.0067644119262695,5.4265220165252686
1762165946.0793674,-10.0,-29.0,-1000.0,2,0,0,-3.1135287284851074,2.0067644119262695,5.4265220165252686
1762165946.1797826,-5.0,-18.0,-1013.0,2,0,0,-2.912698268890381,2.0067644119262695,5.4265220165252686
1762165946.2801855,-2.0,2.0,-1033.0,2,0,0,-2.711892604827881,2.0067644119262695,5.4265220165252686
1762165946.3807194,-9.0,-29.0,-996.0,2,0,0,-2.510824680328369,2.0067644119262695,5.4265220165252686
1762165946.481247,-21.0,-13.0,-990.0,2,0,0,-2.309769630432129,2.0067644119262695,5.4265220165252686
1762165946.5820787,-5.0,-20.0,-1016.0,2,0,0,-2.1081061363220215,2.0067644119262695,5.4265220165252686
1762165946.6827142,-12.0,-17.0,-995.0,2,0,0,-1.9068350791931152,2.0067644119262695,5.4265220165252686
1762165946.7829058,12.0,4.0,-1005.0,2,0,0,-1.7064518928527832,2.0067644119262695,5.4265220165252686
1762165946.883384,-20.0,6.0,-1011.0,2,0,0,-1.505495548248291,2.0067644119262695,5.4265220165252686
1762165946.9837515,-1.0,-1.0,-1007.0,2,0,0,-1.304760456085205,2.0067644119262695,5.4265220165252686
1762165947.084508,1.0,-26.0,-984.0,2,0,0,-1.1032476425170898,2.0067644119262695,5.4265220165252686
1762165947.1849089,19.0,3.0,-973.0,1,0,0,-1.0028467178344727,2.0067644119262695,5.4265220165252686
1762165947.2851126,1.0,-7.0,-995.0,0,0,0,-1.0028467178344727,2.0067644119262695,5.4265220165252686
1762165947.3852537,-22.0,-8.0,-1010.0,0,0,0,-1.0028467178344727,2.0067644119262695,5.4265220165252686
1762165947.485493,13.0,-7.0,-1028.0,0,0,0,-1.0028467178344727,2.0067644119262695,5.4265220165252686
1762165947.5858881,-1.0,21.0,-1001.0,0,0,0,-1.0028467178344727,2.0067644119262695,5.4265220165252686
1762165947.6862917,0.0,10.0,-999.0,0,0,0,-1.0028467178344727,2.0067644119262695,5.4265220165252686
1762165947.7870674,-3.0,1.0,-999.0,0,0,0,-1.0028467178344727,2.0067644119262695,5.4265220165252686
1762165947.88742,-11.0,10.0,-990.0,0,0,0,-1.0028467178344727,2.0067644119262695,5.4265220165252686
1762165947.9876587,-7.0,11.0,-1002.0,0,0,0,-1.0028467178344727,2.0067644119262695,5.4265220165252686
1762165948.088093,-20.0,9.0,-1007.0,0,0,0,-1.0028467178344727,2.0067644119262695,5.4265220165252686
1762165948.1885245,-12.0,-7.0,-988.0,0,0,0,-1.0028467178344727,2.0067644119262695,5.4265220165252686
1762165948.2890503,1.0,11.0,-1020.0,0,0,0,-1.0028467178344727,2.0067644119262695,5.4265220165252686
1762165948.3898218,7.0,16.0,-1025.0,0,0,0,-1.0028467178344727,2.0067644119262695,5.4265220165252686
1762165948.490279,8.0,6.0,-991.0,0,0,0,-1.0028467178344727,2.0067644119262695,5.4265220165252686
1762165948.5905347,-4.0,14.0,-1004.0,0,0,0,-1.0028467178344727,2.0067644119262695,5.4265220165252686
1762165948.690742,-4.0,14.0,-1004.0,0,0,0,-1.0028467178344727,2.0067644119262695,5.4265220165252686
1762165948.7912815,2.0,15.0,-999.0,0,0,0,-1.0028467178344727,2.0067644119262695,5.4265220165252686
1762165948.8916194,0.0,13.0,-1004.0,0,0,0,-1.0028467178344727,2.0067644119262695,5.4265220165252686
1762165948.9920151,-9.0,17.0,-1014.0,0,0,0,-1.0028467178344727,2.0067644119262695,5.4265220165252686
1762165949.0924346,5.0,13.0,-1014.0,0,0,0,-1.0028467178344727,2.0067644119262695,5.4265220165252686
1762165949.192746,0.0,3.0,-1004.0,0,0,0,-1.0028467178344727,2.0067644119262695,5.4265220165252686
1762165949.293111,-2.0,12.0,-991.0,0,0,0,-1.0028467178344727,2.0067644119262695,5.4265220165252686
1762165949.3938916,5.0,8.0,-1006.0,0,0,0,-1.0028467178344727,2.0067644119262695,5.4265220165252686
1762165949.4942236,-6.0,13.0,-1005.0,0,0,0,-1.0028467178344727,2.0067644119262695,5.4265220165252686
1762165949.5946667,-4.0,20.0,-997.0,0,0,0,-1.0028467178344727,2.0067644119262695,5.4265220165252686
1762165949.6952825,-5.0,0.0,-980.0,0,0,0,-1.0028467178344727,2.0067644119262695,5.4265220165252686
1762165949.795634,7.0,-10.0,-994.0,0,0,0,-1.0028467178344727,2.0067644119262695,5.4265220165252686
1762165949.8958967,0.0,10.0,-1019.0,0,0,0,-1.0028467178344727,2.0067644119262695,5.4265220165252686
1762165949.9962804,13.0,13.0,-1008.0,0,0,0,-1.0028467178344727,2.0067644119262695,5.4265220165252686
1762165950.0966794,21.0,-1.0,-1002.0,0,0,0,-1.0028467178344727,2.0067644119262695,5.4265220165252686
1762165950.197497,18.0,6.0,-1014.0,0,0,0,-1.0028467178344727,2.0067644119262695,5.4265220165252686
1762165950.2980406,5.0,0.0,-997.0,0,0,0,-1.0028467178344727,2.0067644119262695,5.4265220165252686
1762165950.3985925,7.0,-2.0,-985.0,0,0,0,-1.0028467178344727,2.0067644119262695,5.4265220165252686
1762165950.49928,5.0,11.0,-986.0,0,0,0,-1.0028467178344727,2.0067644119262695,5.4265220165252686
1762165950.5995417,25.0,16.0,-1005.0,0,0,0,-1.0028467178344727,2.0067644119262695,5.4265220165252686
1762165950.69985,6.0,7.0,-1007.0,0,0,0,-1.0028467178344727,2.0067644119262695,5.4265220165252686
1762165950.8006868,11.0,0.0,-981.0,0,0,0,-1.0028467178344727,2.0067644119262695,5.4265220165252686
1762165950.9014614,7.0,2.0,-991.0,0,0,0,-1.0028467178344727,2.0067644119262695,5.4265220165252686
1762165951.0016212,-8.0,21.0,-990.0,0,0,0,-1.0028467178344727,2.0067644119262695,5.4265220165252686
1762165951.1022887,3.0,18.0,-987.0,0,0,0,-1.0028467178344727,2.0067644119262695,5.4265220165252686
1762165951.202507,3.0,13.0,-1012.0,0,0,0,-1.0028467178344727,2.0067644119262695,5.4265220165252686
1762165951.3030677,-8.0,-1.0,-1000.0,0,0,0,-1.0028467178344727,2.0067644119262695,5.4265220165252686
1762165951.4033978,2.0,-2.0,-999.0,0,0,0,-1.0028467178344727,2.0067644119262695,5.4265220165252686
1762165951.50383,17.0,1.0,-1006.0,0,0,0,-1.0028467178344727,2.0067644119262695,5.4265220165252686
1762165951.604117,-11.0,-4.0,-984.0,0,0,0,-1.0028467178344727,2.0067644119262695,5.4265220165252686
1762165951.7043629,-1.0,2.0,-1005.0,0,0,0,-1.0028467178344727,2.0067644119262695,5.4265220165252686
1762165951.8048007,8.0,-5.0,-1006.0,0,0,0,-1.0028467178344727,2.0067644119262695,5.4265220165252686
1762165951.9051373,-1.0,-12.0,-1001.0,0,0,0,-1.0028467178344727,2.0067644119262695,5.4265220165252686
1762165952.006343,0.0,16.0,-1004.0,0,0,0,-1.0028467178344727,2.0067644119262695,5.4265220165252686
1762165952.1071017,0.0,16.0,-1004.0,0,0,0,-1.0028467178344727,2.0067644119262695,5.4265220165252686
1762165952.2073922,-13.0,7.0,-1003.0,0,0,0,-1.0028467178344727,2.0067644119262695,5.4265220165252686
1762165952.3078039,-1.0,40.0,-1023.0,0,0,0,-1.0028467178344727,2.0067644119262695,5.4265220165252686
1762165952.4081843,-22.0,11.0,-988.0,0,0,0,-1.0028467178344727,2.0067644119262695,5.4265220165252686
1762165952.5089645,-20.0,34.0,-1006.0,0,0,0,-1.0028467178344727,2.0067644119262695,5.4265220165252686
1762165952.6098096,-9.0,27.0,-982.0,0,0,0,-1.0028467178344727,2.0067644119262695,5.4265220165252686
1762165952.7104878,-3.0,8.0,-978.0,0,0,0,-1.0028467178344727,2.0067644119262695,5.4265220165252686
1762165952.8106885,-15.0,30.0,-975.0,0,0,0,-1.0028467178344727,2.0067644119262695,5.4265220165252686
1762165952.9114406,-7.0,7.0,-977.0,0,0,0,-1.0028467178344727,2.0067644119262695,5.4265220165252686
1762165953.0119522,-4.0,36.0,-997.0,0,0,0,-1.0028467178344727,2.0067644119262695,5.4265220165252686
1762165953.113013,-20.0,21.0,-974.0,0,0,0,-1.0028467178344727,2.0067644119262695,5.4265220165252686
1762165953.2136693,-33.0,26.0,-968.0,0,0,0,-1.0028467178344727,2.0067644119262695,5.4265220165252686
1762165953.3138378,-7.0,27.0,-998.0,0,0,0,-1.0028467178344727,2.0067644119262695,5.4265220165252686
1762165953.414212,-4.0,22.0,-987.0,0,0,0,-1.0028467178344727,2.0067644119262695,5.4265220165252686
1762165953.5149686,-12.0,42.0,-1032.0,0,0,0,-1.0028467178344727,2.0067644119262695,5.4265220165252686
1762165953.615422,-9.0,26.0,-994.0,0,0,0,-1.0028467178344727,2.0067644119262695,5.4265220165252686
1762165953.7161107,-19.0,29.0,-978.0,0,0,0,-1.0028467178344727,2.0067644119262695,5.4265220165252686
1762165953.8163893,-31.0,9.0,-990.0,0,0,0,-1.0028467178344727,2.0067644119262695,5.4265220165252686
1762165953.9170516,-23.0,22.0,-994.0,0,0,0,-1.0028467178344727,2.0067644119262695,5.4265220165252686
1762165954.0174701,-22.0,16.0,-970.0,0,0,0,-1.0028467178344727,2.0067644119262695,5.4265220165252686
1762165954.117859,-11.0,-2.0,-1011.0,0,0,0,-1.0028467178344727,2.0067644119262695,5.4265220165252686
1762165954.21865,-4.0,-17.0,-1034.0,0,0,0,-1.0028467178344727,2.0067644119262695,5.4265220165252686
1762165954.319365,-12.0,8.0,-990.0,0,0,0,-1.0028467178344727,2.0067644119262695,5.4265220165252686
1762165954.4196732,-47.0,10.0,-1031.0,0,0,0,-1.0028467178344727,2.0067644119262695,5.4265220165252686
1762165954.519889,8.0,34.0,-973.0,0,0,0,-1.0028467178344727,2.0067644119262695,5.4265220165252686
1762165954.6203072,-31.0,17.0,-1010.0,0,0,0,-1.0028467178344727,2.0067644119262695,5.4265220165252686
1762165954.720475,-35.0,35.0,-977.0,0,0,0,-1.0028467178344727,2.0067644119262695,5.4265220165252686
1762165954.820965,-25.0,14.0,-1031.0,0,0,0,-1.0028467178344727,2.0067644119262695,5.4265220165252686
1762165954.9214761,-56.0,30.0,-993.0,0,0,0,-1.0028467178344727,2.0067644119262695,5.4265220165252686
1762165955.0221193,-12.0,11.0,-1013.0,0,0,0,-1.0028467178344727,2.0067644119262695,5.4265220165252686
1762165955.1226373,-38.0,15.0,-1030.0,0,0,0,-1.0028467178344727,2.0067644119262695,5.4265220165252686
1762165955.223291,-31.0,3.0,-999.0,0,0,0,-1.0028467178344727,2.0067644119262695,5.4265220165252686
1762165955.3237,-17.0,8.0,-985.0,0,0,0,-1.0028467178344727,2.0067644119262695,5.4265220165252686
1762165955.4242287,-34.0,16.0,-952.0,0,0,0,-1.0028467178344727,2.0067644119262695,5.4265220165252686
1762165955.5249698,-9.0,13.0,-989.0,0,0,0,-1.0028467178344727,2.0067644119262695,5.4265220165252686
1762165955.625193,-21.0,15.0,-994.0,0,0,0,-1.0028467178344727,2.0067644119262695,5.4265220165252686
1762165955.7260802,-22.0,-1.0,-1006.0,0,0,0,-1.0028467178344727,2.0067644119262695,5.4265220165252686
1762165955.8266606,-28.0,12.0,-995.0,0,0,0,-1.0028467178344727,2.0067644119262695,5.4265220165252686
1762165955.9273825,-12.0,23.0,-997.0,0,0,0,-1.0028467178344727,2.0067644119262695,5.4265220165252686
1762165956.027923,-5.0,-1.0,-947.0,0,0,0,-1.0028467178344727,2.0067644119262695,5.4265220165252686
1762165956.1283154,17.0,1.0,-986.0,0,0,0,-1.0028467178344727,2.0067644119262695,5.4265220165252686
1762165956.2288482,0.0,22.0,-992.0,0,0,0,-1.0028467178344727,2.0067644119262695,5.4265220165252686
1762165956.3292828,-16.0,46.0,-1000.0,0,-1,0,-1.0028467178344727,1.906329870223999,5.4265220165252686
1762165956.4297779,-3.0,27.0,-995.0,0,0,0,-1.0028467178344727,1.906329870223999,5.4265220165252686
1762165956.5303802,-17.0,-9.0,-999.0,0,0,0,-1.0028467178344727,1.906329870223999,5.4265220165252686
1762165956.630728,1.0,10.0,-993.0,0,0,0,-1.0028467178344727,1.906329870223999,5.4265220165252686
1762165956.7314508,-16.0,14.0,-996.0,0,0,0,-1.0028467178344727,1.906329870223999,5.4265220165252686
1762165956.8318417,17.0,23.0,-1044.0,0,0,0,-1.0028467178344727,1.906329870223999,5.4265220165252686
1762165956.9324284,-5.0,7.0,-993.0,0,0,0,-1.0028467178344727,1.906329870223999,5.4265220165252686
1762165957.0329006,-10.0,-9.0,-957.0,0,0,0,-1.0028467178344727,1.906329870223999,5.4265220165252686
1762165957.1334002,-6.0,-6.0,-1031.0,0,0,0,-1.0028467178344727,1.906329870223999,5.4265220165252686
1762165957.234045,-42.0,11.0,-1027.0,0,0,0,-1.0028467178344727,1.906329870223999,5.4265220165252686
1762165957.3347218,-10.0,7.0,-1015.0,0,0,0,-1.0028467178344727,1.906329870223999,5.4265220165252686
1762165957.4353282,-7.0,9.0,-968.0,0,0,0,-1.0028467178344727,1.906329870223999,5.4265220165252686
1762165957.5358222,-19.0,-5.0,-997.0,0,0,0,-1.0028467178344727,1.906329870223999,5.4265220165252686
1762165957.6362872,-34.0,15.0,-1006.0,0,0,0,-1.0028467178344727,1.906329870223999,5.4265220165252686
1762165957.7367308,-16.0,14.0,-965.0,0,0,0,-1.0028467178344727,1.906329870223999,5.4265220165252686
1762165957.8372228,-24.0,-9.0,-947.0,0,0,0,-1.0028467178344727,1.906329870223999,5.4265220165252686
1762165957.9378028,-51.0,6.0,-973.0,0,0,0,-1.0028467178344727,1.906329870223999,5.4265220165252686
1762165958.0379844,-2.0,-8.0,-920.0,0,0,0,-1.0028467178344727,1.906329870223999,5.4265220165252686
1762165958.138405,-28.0,4.0,-949.0,0,0,-1,-1.0028467178344727,1.906329870223999,5.326101303100586
1762165958.238561,-28.0,32.0,-936.0,0,0,-1,-1.0028467178344727,1.906329870223999,5.225945472717285
1762165958.3390124,-18.0,15.0,-911.0,0,0,-2,-1.0028467178344727,1.906329870223999,5.025042533874512
1762165958.4394686,-11.0,25.0,-902.0,0,0,-2,-1.0028467178344727,1.906329870223999,4.824130058288574
1762165958.5398662,0.0,3.0,-910.0,0,0,-3,-1.0028467178344727,1.906329870223999,4.522937297821045
1762165958.6403327,-5.0,-12.0,-857.0,0,0,-4,-1.0028467178344727,1.906329870223999,4.1210713386535645
1762165958.740848,-17.0,-5.0,-871.0,0,0,-5,-1.0028467178344727,1.906329870223999,3.6184945106506348
1762165958.8410676,-36.0,2.0,-919.0,0,0,-7,-1.0028467178344727,1.906329870223999,2.9169580936431885
1762165958.9420884,4.0,10.0,-911.0,0,0,-8,-1.0028467178344727,1.906329870223999,2.1087915897369385
1762165959.0427706,-10.0,13.0,-906.0,0,0,-8,-1.0028467178344727,1.906329870223999,1.3033335208892822
1762165959.1429107,-26.0,-13.0,-1027.0,0,0,-9,-1.0028467178344727,1.906329870223999,0.4020726680755615
1762165959.2434893,309.0,-194.0,-941.0,0,0,-10,-1.0028467178344727,1.906329870223999,-0.603712797164917
1762165959.3438156,0.0,-49.0,-704.0,1,0,0,-0.9025204181671143,1.906329870223999,-0.603712797164917
1762165959.4441745,35.0,-42.0,-712.0,1,1,-3,-0.802161455154419,2.0066888332366943,-0.9047896862030029
1762165959.5446162,19.0,-29.0,-844.0,0,0,-5,-0.802161455154419,2.0066888332366943,-1.4069981575012207
1762165959.6448736,-265.0,33.0,-1176.0,0,0,-8,-0.802161455154419,2.0066888332366943,-2.209057331085205
1762165959.745186,-1.0,-8.0,-810.0,0,0,-8,-0.802161455154419,2.0066888332366943,-3.011557102203369
1762165959.8457794,23.0,-15.0,-941.0,0,0,-9,-0.802161455154419,2.0066888332366943,-3.9168970584869385
1762165959.9459963,13.0,39.0,-973.0,0,0,-9,-0.802161455154419,2.0066888332366943,-4.8188488483428955
1762165960.0463476,0.0,-19.0,-1009.0,0,0,-9,-0.802161455154419,2.0066888332366943,-5.722010850906372
1762165960.146499,11.0,-21.0,-997.0,0,0,-9,-0.802161455154419,2.0066888332366943,-6.623372554779053
1762165960.247243,-6.0,-5.0,-1001.0,0,0,-9,-0.802161455154419,2.0066888332366943,-7.530068635940552
1762165960.3479097,10.0,-6.0,-997.0,0,0,-9,-0.802161455154419,2.0066888332366943,-8.43606948852539
1762165960.4481654,-3.0,-4.0,-1001.0,0,0,-10,-0.802161455154419,2.0066888332366943,-9.438626766204834
1762165960.548494,0.0,-11.0,-1016.0,0,0,-11,-0.802161455154419,2.0066888332366943,-10.542242288589478
1762165960.6487048,13.0,18.0,-998.0,0,0,-11,-0.802161455154419,2.0066888332366943,-11.644559621810913
1762165960.7492719,14.0,3.0,-1022.0,0,0,-11,-0.802161455154419,2.0066888332366943,-12.750797748565674
1762165960.849914,-15.0,34.0,-1006.0,0,0,-11,-0.802161455154419,2.0066888332366943,-13.857861995697021
1762165960.950316,1.0,73.0,-984.0,0,0,-10,-0.802161455154419,2.0066888332366943,-14.861880779266357
1762165961.0505905,-9.0,96.0,-987.0,0,0,-10,-0.802161455154419,2.0066888332366943,-15.864626407623291
1762165961.1508164,8.0,97.0,-983.0,0,0,-9,-0.802161455154419,2.0066888332366943,-16.7666597366333
1762165961.2512505,12.0,75.0,-999.0,0,0,-8,-0.802161455154419,2.0066888332366943,-17.5701322555542
1762165961.3516085,-31.0,63.0,-965.0,0,0,-8,-0.802161455154419,2.0066888332366943,-18.37299633026123
1762165961.4522965,-2.0,50.0,-982.0,0,0,-8,-0.802161455154419,2.0066888332366943,-19.178500175476074
1762165961.553132,2.0,5.0,-970.0,0,0,-9,-0.802161455154419,2.0066888332366943,-20.08602023124695
1762165961.6539004,5.0,-2.0,-1038.0,0,0,-9,-0.802161455154419,2.0066888332366943,-20.992935180664062
1762165961.7540894,16.0,-48.0,-992.0,0,0,-3,-0.802161455154419,2.0066888332366943,-21.29350209236145
1762165961.8548765,-1.0,-7.0,-1010.0,0,0,-2,-0.802161455154419,2.0066888332366943,-21.495076417922974
1762165961.9552372,-1.0,-4.0,-1005.0,0,0,-1,-0.802161455154419,2.0066888332366943,-21.595437049865723
1762165962.0560853,-4.0,-2.0,-1007.0,0,0,0,-0.802161455154419,2.0066888332366943,-21.595437049865723
1762165962.1563978,0.0,-6.0,-1005.0,0,0,0,-0.802161455154419,2.0066888332366943,-21.595437049865723
1762165962.2569427,-5.0,6.0,-1008.0,0,0,0,-0.802161455154419,2.0066888332366943,-21.595437049865723
1762165962.357573,0.0,2.0,-1013.0,0,0,0,-0.802161455154419,2.0066888332366943,-21.595437049865723
1762165962.4579115,-1.0,-1.0,-1010.0,0,0,0,-0.802161455154419,2.0066888332366943,-21.595437049865723
1762165962.5585294,3.0,-8.0,-1005.0,0,0,0,-0.802161455154419,2.0066888332366943,-21.595437049865723
1762165962.6589966,2.0,-7.0,-1009.0,0,0,0,-0.802161455154419,2.0066888332366943,-21.595437049865723
1762165962.7596095,-3.0,1.0,-1007.0,0,0,0,-0.802161455154419,2.0066888332366943,-21.595437049865723
1762165962.8598602,4.0,-12.0,-1004.0,0,0,0,-0.802161455154419,2.0066888332366943,-21.595437049865723
1762165962.960598,0.0,-2.0,-1009.0,0,0,0,-0.802161455154419,2.0066888332366943,-21.595437049865723
1762165963.0609195,4.0,-4.0,-1011.0,0,0,0,-0.802161455154419,2.0066888332366943,-21.595437049865723
1762165963.161492,-2.0,2.0,-1008.0,0,0,0,-0.802161455154419,2.0066888332366943,-21.595437049865723
1762165963.262196,2.0,-1.0,-1008.0,0,0,0,-0.802161455154419,2.0066888332366943,-21.595437049865723
1762165963.3626487,-3.0,0.0,-1008.0,0,0,0,-0.802161455154419,2.0066888332366943,-21.595437049865723
1762165963.4628167,6.0,-6.0,-1004.0,0,0,0,-0.802161455154419,2.0066888332366943,-21.595437049865723
1762165963.563212,-5.0,0.0,-1009.0,0,0,0,-0.802161455154419,2.0066888332366943,-21.595437049865723
1762165963.6636941,3.0,-2.0,-1006.0,0,0,0,-0.802161455154419,2.0066888332366943,-21.595437049865723
1762165963.7643752,0.0,-2.0,-1003.0,0,0,0,-0.802161455154419,2.0066888332366943,-21.595437049865723
1762165963.8652747,4.0,-3.0,-1004.0,0,0,0,-0.802161455154419,2.0066888332366943,-21.595437049865723
1762165963.9658515,0.0,-3.0,-1002.0,0,0,0,-0.802161455154419,2.0066888332366943,-21.595437049865723
1762165964.0662181,2.0,-3.0,-1001.0,0,0,0,-0.802161455154419,2.0066888332366943,-21.595437049865723
1762165964.1665895,0.0,-3.0,-1002.0,0,0,0,-0.802161455154419,2.0066888332366943,-21.595437049865723
1762165964.2668993,2.0,-2.0,-1002.0,0,0,0,-0.802161455154419,2.0066888332366943,-21.595437049865723
1762165964.3676195,5.0,-2.0,-1000.0,0,0,0,-0.802161455154419,2.0066888332366943,-21.595437049865723
1762165964.4684923,-1.0,-4.0,-1002.0,0,0,0,-0.802161455154419,2.0066888332366943,-21.595437049865723
1762165964.568891,1.0,-3.0,-998.0,0,0,0,-0.802161455154419,2.0066888332366943,-21.595437049865723
1762165964.6690512,1.0,-2.0,-1002.0,0,0,0,-0.802161455154419,2.0066888332366943,-21.595437049865723
1762165964.7697015,0.0,-2.0,-1000.0,0,0,0,-0.802161455154419,2.0066888332366943,-21.595437049865723
1762165964.8699465,3.0,-1.0,-998.0,0,0,0,-0.802161455154419,2.0066888332366943,-21.595437049865723
1762165964.9704475,0.0,-1.0,-1002.0,0,0,0,-0.802161455154419,2.0066888332366943,-21.595437049865723
1762165965.0708587,1.0,-2.0,-1001.0,0,0,0,-0.802161455154419,2.0066888332366943,-21.595437049865723
1762165965.171489,0.0,-1.0,-1001.0,0,0,0,-0.802161455154419,2.0066888332366943,-21.595437049865723
1762165965.2721205,3.0,-1.0,-997.0,0,0,0,-0.802161455154419,2.0066888332366943,-21.595437049865723
1762165965.3724718,2.0,-1.0,-997.0,0,0,0,-0.802161455154419,2.0066888332366943,-21.595437049865723
1762165965.4726267,0.0,-3.0,-998.0,0,0,0,-0.802161455154419,2.0066888332366943,-21.595437049865723
