Time,Ax,Ay,Az,Sx,Sy,Sz,x,y,z
1762168170.6199994,-2.0,0.0,-997.0,0,0,0,0.0,0.0,0.0
1762168170.7209716,-2.0,0.0,-997.0,0,0,0,0.0,0.0,0.0
1762168170.821775,-2.0,-1.0,-999.0,0,0,0,0.0,0.0,0.0
1762168170.9224982,-2.0,-1.0,-999.0,0,0,0,0.0,0.0,0.0
1762168171.0229533,0.0,-2.0,-996.0,0,0,0,0.0,0.0,0.0
1762168171.1235607,0.0,-2.0,-997.0,0,0,0,0.0,0.0,0.0
1762168171.2239213,0.0,-2.0,-998.0,0,0,0,0.0,0.0,0.0
1762168171.3243456,-1.0,-2.0,-999.0,0,0,0,0.0,0.0,0.0
1762168171.4251215,0.0,-1.0,-999.0,0,0,0,0.0,0.0,0.0
1762168171.5253196,-2.0,-1.0,-1000.0,0,0,0,0.0,0.0,0.0
1762168171.625696,0.0,-1.0,-1000.0,0,0,0,0.0,0.0,0.0
1762168171.726204,-1.0,-2.0,-1001.0,0,0,0,0.0,0.0,0.0
1762168171.8264306,-1.0,-1.0,-1000.0,0,0,0,0.0,0.0,0.0
1762168171.927245,-1.0,-1.0,-999.0,0,0,0,0.0,0.0,0.0
1762168172.0281863,-1.0,-2.0,-1000.0,0,0,0,0.0,0.0,0.0
1762168172.1283538,-1.0,-1.0,-997.0,0,0,0,0.0,0.0,0.0
1762168172.2285004,-1.0,-2.0,-1001.0,0,0,0,0.0,0.0,0.0
1762168172.3288283,0.0,-1.0,-999.0,0,0,0,0.0,0.0,0.0
1762168172.429201,-2.0,-2.0,-1003.0,0,0,0,0.0,0.0,0.0
1762168172.529966,0.0,0.0,-998.0,0,0,0,0.0,0.0,0.0
1762168172.6305075,-2.0,-3.0,-999.0,0,0,0,0.0,0.0,0.0
1762168172.730841,-1.0,-1.0,-996.0,0,0,0,0.0,0.0,0.0
1762168172.8311067,0.0,-2.0,-1000.0,0,0,0,0.0,0.0,0.0
1762168172.9314456,-2.0,0.0,-1001.0,0,0,0,0.0,0.0,0.0
1762168173.0318756,-1.0,-2.0,-1001.0,0,0,0,0.0,0.0,0.0
1762168173.1321537,-1.0,0.0,-1001.0,0,0,0,0.0,0.0,0.0
1762168173.232634,0.0,-1.0,-1000.0,0,0,0,0.0,0.0,0.0
1762168173.3333292,-1.0,-2.0,-997.0,0,0,0,0.0,0.0,0.0
1762168173.4336264,-1.0,-2.0,-1000.0,0,0,0,0.0,0.0,0.0
1762168173.534121,-1.0,-2.0,-998.0,0,0,0,0.0,0.0,0.0
1762168173.6345346,0.0,0.0,-1003.0,0,0,0,0.0,0.0,0.0
1762168173.7348905,0.0,-2.0,-999.0,0,0,0,0.0,0.0,0.0
1762168173.835493,1.0,-1.0,-1003.0,0,0,0,0.0,0.0,0.0
1762168173.93631,-2.0,1.0,-1002.0,0,0,0,0.0,0.0,0.0
1762168174.0366197,8.0,2.0,-997.0,0,0,0,0.0,0.0,0.0
1762168174.136861,12.0,5.0,-1006.0,0,0,0,0.0,0.0,0.0
1762168174.2371945,5.0,-4.0,-1003.0,0,0,0,0.0,0.0,0.0
1762168174.3378286,-22.0,4.0,-1012.0,0,0,0,0.0,0.0,0.0
1762168174.4385927,-34.0,-4.0,-994.0,0,0,0,0.0,0.0,0.0
1762168174.5392041,-25.0,-4.0,-1063.0,0,0,0,0.0,0.0,0.0
1762168174.6398022,-13.0,9.0,-1086.0,0,0,0,0.0,0.0,0.0
1762168174.7400384,-47.0,-28.0,-1160.0,1,0,1,0.10023617744445801,0.0,0.10023617744445801
1762168174.840588,18.0,-13.0,-1156.0,1,0,2,0.20078587532043457,0.0,0.30133557319641113
1762168174.9414346,46.0,10.0,-1049.0,1,0,4,0.3016324043273926,0.0,0.7047216892242432
1762168175.0420315,44.0,-13.0,-1052.0,0,0,4,0.3016324043273926,0.0,1.1071093082427979
1762168175.1423311,11.0,-6.0,-1036.0,0,0,5,0.3016324043273926,0.0,1.608607292175293
1762168175.2431643,-16.0,-22.0,-1026.0,0,0,5,0.3016324043273926,0.0,2.1127731800079346
1762168175.3436444,34.0,-12.0,-1004.0,0,0,5,0.3016324043273926,0.0,2.615173578262329
1762168175.4440286,2.0,-17.0,-967.0,0,0,6,0.3016324043273926,0.0,3.2174789905548096
1762168175.5445306,-7.0,-19.0,-1006.0,0,0,6,0.3016324043273926,0.0,3.820491075515747
1762168175.6452968,2.0,18.0,-965.0,0,0,5,0.3016324043273926,0.0,4.324321985244751
1762168175.7461078,2.0,18.0,-965.0,0,0,5,0.3016324043273926,0.0,4.82837700843811
1762168175.84634,18.0,19.0,-938.0,0,0,5,0.3016324043273926,0.0,5.329537630081177
1762168175.9469957,8.0,-14.0,-917.0,0,0,4,0.3016324043273926,0.0,5.732160806655884
1762168176.0476313,16.0,-4.0,-926.0,0,0,3,0.3016324043273926,0.0,6.034067392349243
1762168176.1483126,23.0,5.0,-916.0,0,0,3,0.3016324043273926,0.0,6.336111307144165
1762168176.248463,34.0,6.0,-959.0,0,0,2,0.3016324043273926,0.0,6.536412000656128
1762168176.3487291,2.0,1.0,-941.0,0,0,1,0.3016324043273926,0.0,6.636678218841553
1762168176.4492936,25.0,7.0,-925.0,0,0,1,0.3016324043273926,0.0,6.737242698669434
1762168176.5501795,-7.0,0.0,-965.0,0,0,0,0.3016324043273926,0.0,6.737242698669434
1762168176.650989,-2.0,12.0,-988.0,0,0,0,0.3016324043273926,0.0,6.737242698669434
1762168176.7517526,26.0,14.0,-1006.0,0,0,0,0.3016324043273926,0.0,6.737242698669434
1762168176.8521867,-22.0,3.0,-976.0,0,0,0,0.3016324043273926,0.0,6.737242698669434
1762168176.9523466,0.0,4.0,-1012.0,0,0,0,0.3016324043273926,0.0,6.737242698669434
1762168177.0527165,-10.0,-1.0,-1005.0,0,0,0,0.3016324043273926,0.0,6.737242698669434
1762168177.1530793,28.0,4.0,-1016.0,0,0,0,0.3016324043273926,0.0,6.737242698669434
1762168177.2536974,14.0,1.0,-1008.0,0,0,0,0.3016324043273926,0.0,6.737242698669434
1762168177.3542907,5.0,4.0,-1063.0,0,0,0,0.3016324043273926,0.0,6.737242698669434
1762168177.4549007,4.0,-9.0,-1041.0,0,0,0,0.3016324043273926,0.0,6.737242698669434
1762168177.555677,8.0,-5.0,-1015.0,0,0,0,0.3016324043273926,0.0,6.737242698669434
1762168177.6559756,1.0,3.0,-1015.0,0,0,0,0.3016324043273926,0.0,6.737242698669434
1762168177.7567885,7.0,4.0,-1019.0,0,0,0,0.3016324043273926,0.0,6.737242698669434
1762168177.8576772,6.0,8.0,-1014.0,0,0,0,0.3016324043273926,0.0,6.737242698669434
1762168177.9579306,-4.0,-12.0,-1002.0,0,0,1,0.3016324043273926,0.0,6.837496042251587
1762168178.058077,21.0,2.0,-1005.0,0,0,1,0.3016324043273926,0.0,6.937642574310303
1762168178.1584659,17.0,7.0,-968.0,0,0,1,0.3016324043273926,0.0,7.038031339645386
1762168178.2591076,4.0,9.0,-916.0,0,0,0,0.3016324043273926,0.0,7.038031339645386
1762168178.3595555,-4.0,16.0,-973.0,0,0,0,0.3016324043273926,0.0,7.038031339645386
1762168178.4603407,-17.0,1.0,-992.0,0,0,0,0.3016324043273926,0.0,7.038031339645386
1762168178.560718,0.0,-25.0,-974.0,0,0,0,0.3016324043273926,0.0,7.038031339645386
1762168178.6609735,26.0,-15.0,-1011.0,0,0,0,0.3016324043273926,0.0,7.038031339645386
1762168178.761508,4.0,-18.0,-970.0,0,0,0,0.3016324043273926,0.0,7.038031339645386
1762168178.861703,10.0,1.0,-1031.0,0,0,0,0.3016324043273926,0.0,7.038031339645386
1762168178.962275,6.0,-2.0,-969.0,0,0,0,0.3016324043273926,0.0,7.038031339645386
1762168179.0631957,3.0,1.0,-1026.0,0,0,0,0.3016324043273926,0.0,7.038031339645386
1762168179.1634684,1.0,-8.0,-1000.0,0,0,0,0.3016324043273926,0.0,7.038031339645386
1762168179.2637477,12.0,-8.0,-1020.0,0,0,0,0.3016324043273926,0.0,7.038031339645386
1762168179.3643692,-10.0,5.0,-984.0,0,0,0,0.3016324043273926,0.0,7.038031339645386
1762168179.4648747,10.0,-24.0,-1013.0,0,0,0,0.3016324043273926,0.0,7.038031339645386
1762168179.565664,29.0,2.0,-1014.0,0,0,0,0.3016324043273926,0.0,7.038031339645386
1762168179.6660354,2.0,8.0,-994.0,0,0,0,0.3016324043273926,0.0,7.038031339645386
1762168179.766279,-6.0,6.0,-996.0,0,0,0,0.3016324043273926,0.0,7.038031339645386
1762168179.8665285,0.0,9.0,-988.0,0,0,0,0.3016324043273926,0.0,7.038031339645386
1762168179.967358,20.0,6.0,-1025.0,0,0,0,0.3016324043273926,0.0,7.038031339645386
1762168180.0677161,-18.0,1.0,-973.0,0,0,0,0.3016324043273926,0.0,7.038031339645386
1762168180.1686463,14.0,5.0,-1008.0,0,0,0,0.3016324043273926,0.0,7.038031339645386
1762168180.2689483,15.0,-14.0,-988.0,0,0,0,0.3016324043273926,0.0,7.038031339645386
1762168180.3694134,7.0,-20.0,-981.0,0,0,0,0.3016324043273926,0.0,7.038031339645386
1762168180.4696205,0.0,-17.0,-999.0,0,0,0,0.3016324043273926,0.0,7.038031339645386
1762168180.5702417,25.0,6.0,-1002.0,0,0,0,0.3016324043273926,0.0,7.038031339645386
1762168180.6706622,-3.0,-8.0,-998.0,0,0,0,0.3016324043273926,0.0,7.038031339645386
1762168180.7719169,0.0,-6.0,-988.0,0,0,0,0.3016324043273926,0.0,7.038031339645386
1762168180.8726804,23.0,-1.0,-977.0,0,0,0,0.3016324043273926,0.0,7.038031339645386
1762168180.9731452,4.0,-14.0,-992.0,0,0,0,0.3016324043273926,0.0,7.038031339645386
1762168181.07369,19.0,-15.0,-985.0,0,0,0,0.3016324043273926,0.0,7.038031339645386
1762168181.1741674,25.0,-4.0,-973.0,0,0,0,0.3016324043273926,0.0,7.038031339645386
1762168181.274904,44.0,6.0,-1002.0,0,0,0,0.3016324043273926,0.0,7.038031339645386
1762168181.3756409,31.0,-22.0,-1001.0,0,0,0,0.3016324043273926,0.0,7.038031339645386
1762168181.4758515,40.0,-7.0,-1010.0,0,0,0,0.3016324043273926,0.0,7.038031339645386
1762168181.5761492,4.0,24.0,-1015.0,0,0,0,0.3016324043273926,0.0,7.038031339645386
1762168181.6765375,21.0,-4.0,-1017.0,1,0,0,0.4020206928253174,0.0,7.038031339645386
1762168181.7771816,22.0,-20.0,-1018.0,1,0,0,0.5026648044586182,0.0,7.038031339645386
1762168181.8776467,2.0,10.0,-1008.0,1,0,0,0.6031298637390137,0.0,7.038031339645386
1762168181.9784577,10.0,26.0,-993.0,1,0,0,0.7039408683776855,0.0,7.038031339645386
1762168182.0791137,5.0,20.0,-1001.0,1,0,0,0.8045969009399414,0.0,7.038031339645386
1762168182.1796005,9.0,15.0,-981.0,1,0,0,0.9050836563110352,0.0,7.038031339645386
1762168182.280204,6.0,1.0,-992.0,1,0,0,1.0056872367858887,0.0,7.038031339645386
1762168182.3806818,4.0,5.0,-997.0,1,0,0,1.1061649322509766,0.0,7.038031339645386
1762168182.481062,-4.0,10.0,-996.0,1,0,0,1.206545114517212,0.0,7.038031339645386
1762168182.5814347,9.0,4.0,-987.0,1,0,0,1.3069179058074951,0.0,7.038031339645386
1762168182.6817813,18.0,10.0,-1010.0,1,0,0,1.4072644710540771,0.0,7.038031339645386
1762168182.7825322,-9.0,14.0,-989.0,1,0,0,1.5080153942108154,0.0,7.038031339645386
1762168182.8830557,-2.0,13.0,-998.0,0,0,0,1.5080153942108154,0.0,7.038031339645386
1762168182.9833374,-12.0,16.0,-980.0,1,0,0,1.6082971096038818,0.0,7.038031339645386
1762168183.0841572,9.0,2.0,-1006.0,1,0,0,1.7091169357299805,0.0,7.038031339645386
1762168183.1848323,-4.0,17.0,-998.0,1,0,0,1.8097920417785645,0.0,7.038031339645386
1762168183.2852695,11.0,-2.0,-1010.0,0,0,0,1.8097920417785645,0.0,7.038031339645386
1762168183.385747,-10.0,-5.0,-1026.0,0,0,0,1.8097920417785645,0.0,7.038031339645386
1762168183.4863806,0.0,0.0,-1019.0,0,0,0,1.8097920417785645,0.0,7.038031339645386
1762168183.5868237,3.0,26.0,-1031.0,0,0,0,1.8097920417785645,0.0,7.038031339645386
1762168183.6871696,4.0,14.0,-975.0,0,0,0,1.8097920417785645,0.0,7.038031339645386
1762168183.787572,8.0,-1.0,-1000.0,1,0,0,1.9101943969726562,0.0,7.038031339645386
1762168183.88783,4.0,-5.0,-979.0,1,0,0,2.0104525089263916,0.0,7.038031339645386
1762168183.9881253,15.0,14.0,-995.0,1,0,0,2.110747814178467,0.0,7.038031339645386
1762168184.0882716,11.0,-3.0,-986.0,1,0,0,2.2108941078186035,0.0,7.038031339645386
1762168184.1888041,16.0,-5.0,-1003.0,1,0,0,2.3114266395568848,0.0,7.038031339645386
1762168184.289542,11.0,13.0,-1003.0,0,0,0,2.3114266395568848,0.0,7.038031339645386
1762168184.3898358,24.0,-22.0,-981.0,0,0,0,2.3114266395568848,0.0,7.038031339645386
1762168184.4901383,-15.0,6.0,-993.0,1,0,0,2.411729097366333,0.0,7.038031339645386
1762168184.5904055,-15.0,6.0,-993.0,1,0,0,2.511996269226074,0.0,7.038031339645386
1762168184.690696,-10.0,-5.0,-995.0,1,0,0,2.6122868061065674,0.0,7.038031339645386
1762168184.791381,8.0,0.0,-1002.0,1,0,0,2.7129716873168945,0.0,7.038031339645386
1762168184.8921335,16.0,-6.0,-983.0,1,0,0,2.8137242794036865,0.0,7.038031339645386
1762168184.9927163,-7.0,8.0,-1025.0,0,0,0,2.8137242794036865,0.0,7.038031339645386
1762168185.0934324,16.0,15.0,-1008.0,0,0,0,2.8137242794036865,0.0,7.038031339645386
1762168185.1937542,16.0,4.0,-1015.0,0,0,0,2.8137242794036865,0.0,7.038031339645386
1762168185.2940812,8.0,-14.0,-975.0,1,0,0,2.9140512943267822,0.0,7.038031339645386
1762168185.394825,24.0,-1.0,-986.0,1,0,0,3.0147950649261475,0.0,7.038031339645386
1762168185.4952583,11.0,10.0,-979.0,1,0,0,3.1152284145355225,0.0,7.038031339645386
1762168185.5955513,9.0,-13.0,-1027.0,1,0,0,3.2155213356018066,0.0,7.038031339645386
1762168185.6960685,22.0,-4.0,-993.0,1,0,0,3.3160386085510254,0.0,7.038031339645386
1762168185.7962658,7.0,-23.0,-999.0,1,0,0,3.41623592376709,0.0,7.038031339645386
1762168185.8968496,3.0,-1.0,-1030.0,1,0,0,3.516819715499878,0.0,7.038031339645386
1762168185.997129,24.0,0.0,-1012.0,1,0,0,3.6170990467071533,0.0,7.038031339645386
1762168186.0979493,-8.0,6.0,-1003.0,0,0,0,3.6170990467071533,0.0,7.038031339645386
1762168186.1985586,46.0,8.0,-943.0,0,0,0,3.6170990467071533,0.0,7.038031339645386
1762168186.2987618,-6.0,18.0,-1002.0,0,0,0,3.6170990467071533,0.0,7.038031339645386
1762168186.3991227,-32.0,-18.0,-997.0,-2,0,0,3.416377305984497,0.0,7.038031339645386
1762168186.4995534,-2.0,8.0,-1036.0,-2,0,0,3.2155158519744873,0.0,7.038031339645386
1762168186.5998967,5.0,17.0,-1017.0,-2,0,0,3.014829397201538,0.0,7.038031339645386
1762168186.700685,-5.0,-1.0,-1015.0,-2,0,0,2.8132526874542236,0.0,7.038031339645386
1762168186.8013778,-9.0,0.0,-976.0,-2,0,0,2.6118671894073486,0.0,7.038031339645386
1762168186.901716,-4.0,-5.0,-985.0,-2,0,0,2.4111907482147217,0.0,7.038031339645386
1762168187.001885,-16.0,0.0,-1000.0,-2,0,0,2.210852861404419,0.0,7.038031339645386
1762168187.1027265,0.0,-11.0,-999.0,-3,0,0,1.9083282947540283,0.0,7.038031339645386
1762168187.2034752,-8.0,-13.0,-991.0,-3,0,0,1.6060819625854492,0.0,7.038031339645386
1762168187.3038006,-14.0,11.0,-1028.0,-2,0,0,1.4054312705993652,0.0,7.038031339645386
1762168187.4040122,3.0,7.0,-978.0,-2,0,0,1.2050080299377441,0.0,7.038031339645386
1762168187.50437,-31.0,20.0,-1010.0,-2,0,0,1.0042924880981445,0.0,7.038031339645386
1762168187.6050577,-35.0,0.0,-1046.0,-1,0,0,0.9036047458648682,0.0,7.038031339645386
1762168187.7054977,16.0,0.0,-1018.0,0,0,0,0.9036047458648682,0.0,7.038031339645386
1762168187.806032,10.0,-6.0,-1031.0,-1,0,0,0.8030705451965332,0.0,7.038031339645386
1762168187.906335,-13.0,-14.0,-992.0,-1,0,0,0.7027673721313477,0.0,7.038031339645386
1762168188.0066657,6.0,-2.0,-985.0,0,0,0,0.7027673721313477,0.0,7.038031339645386
1762168188.1069853,-5.0,-13.0,-1010.0,0,0,0,0.7027673721313477,0.0,7.038031339645386
1762168188.207415,-2.0,-12.0,-1007.0,0,0,0,0.7027673721313477,0.0,7.038031339645386
1762168188.3077607,4.0,-5.0,-983.0,0,0,0,0.7027673721313477,0.0,7.038031339645386
1762168188.408009,16.0,16.0,-993.0,0,0,0,0.7027673721313477,0.0,7.038031339645386
1762168188.508694,10.0,-32.0,-1030.0,0,0,0,0.7027673721313477,0.0,7.038031339645386
1762168188.6094098,9.0,2.0,-1008.0,0,0,0,0.7027673721313477,0.0,7.038031339645386
1762168188.709721,17.0,18.0,-983.0,0,0,0,0.7027673721313477,0.0,7.038031339645386
1762168188.8100197,14.0,8.0,-1010.0,0,0,0,0.7027673721313477,0.0,7.038031339645386
1762168188.9104564,-1.0,0.0,-1016.0,0,0,0,0.7027673721313477,0.0,7.038031339645386
1762168189.0109422,7.0,0.0,-1013.0,0,0,0,0.7027673721313477,0.0,7.038031339645386
1762168189.1115456,19.0,-5.0,-1043.0,0,0,0,0.7027673721313477,0.0,7.038031339645386
1762168189.21225,10.0,27.0,-972.0,0,0,0,0.7027673721313477,0.0,7.038031339645386
1762168189.3125477,2.0,18.0,-1012.0,0,0,0,0.7027673721313477,0.0,7.038031339645386
1762168189.4132767,15.0,4.0,-1000.0,0,0,0,0.7027673721313477,0.0,7.038031339645386
1762168189.5136719,2.0,9.0,-993.0,0,0,0,0.7027673721313477,0.0,7.038031339645386
1762168189.614195,34.0,25.0,-1017.0,0,0,0,0.7027673721313477,0.0,7.038031339645386
1762168189.7148905,14.0,13.0,-1012.0,0,0,0,0.7027673721313477,0.0,7.038031339645386
1762168189.8155484,20.0,24.0,-1025.0,0,0,0,0.7027673721313477,0.0,7.038031339645386
1762168189.9158726,19.0,29.0,-981.0,0,0,0,0.7027673721313477,0.0,7.038031339645386
1762168190.0166218,7.0,8.0,-1043.0,1,0,0,0.8035166263580322,0.0,7.038031339645386
1762168190.1167846,21.0,-5.0,-1023.0,1,0,0,0.903679370880127,0.0,7.038031339645386
1762168190.2175896,8.0,-5.0,-1017.0,1,0,0,1.0044844150543213,0.0,7.038031339645386
1762168190.318232,0.0,8.0,-1027.0,1,0,0,1.1051268577575684,0.0,7.038031339645386
1762168190.418849,4.0,0.0,-1038.0,1,0,0,1.2057437896728516,0.0,7.038031339645386
1762168190.5193055,36.0,18.0,-1009.0,1,0,0,1.3062002658843994,0.0,7.038031339645386
1762168190.619792,17.0,-4.0,-1001.0,0,0,0,1.3062002658843994,0.0,7.038031339645386
1762168190.7200933,1.0,-13.0,-1039.0,0,0,0,1.3062002658843994,0.0,7.038031339645386
1762168190.8205278,43.0,-4.0,-1023.0,0,0,0,1.3062002658843994,0.0,7.038031339645386
1762168190.9209259,2.0,-19.0,-987.0,0,0,0,1.3062002658843994,0.0,7.038031339645386
1762168191.0213294,5.0,-17.0,-984.0,1,0,0,1.4066038131713867,0.0,7.038031339645386
1762168191.121948,10.0,-6.0,-991.0,1,0,0,1.5072224140167236,0.0,7.038031339645386
1762168191.2221367,40.0,15.0,-962.0,1,0,0,1.6074111461639404,0.0,7.038031339645386
1762168191.3226955,32.0,-4.0,-963.0,0,0,0,1.6074111461639404,0.0,7.038031339645386
1762168191.422976,32.0,-4.0,-963.0,0,0,0,1.6074111461639404,0.0,7.038031339645386
1762168191.5233548,16.0,2.0,-996.0,0,0,0,1.6074111461639404,0.0,7.038031339645386
1762168191.6237926,15.0,13.0,-996.0,0,0,0,1.6074111461639404,0.0,7.038031339645386
1762168191.723966,24.0,-20.0,-1031.0,1,0,0,1.7075843811035156,0.0,7.038031339645386
1762168191.8245926,23.0,14.0,-1017.0,1,0,0,1.808211088180542,0.0,7.038031339645386
1762168191.924741,45.0,-12.0,-1033.0,1,0,0,1.9083595275878906,0.0,7.038031339645386
1762168192.025643,39.0,5.0,-1017.0,1,0,0,2.0092616081237793,0.0,7.038031339645386
1762168192.1265485,52.0,9.0,-991.0,0,0,0,2.0092616081237793,0.0,7.038031339645386
1762168192.2267027,25.0,-7.0,-967.0,0,0,0,2.0092616081237793,0.0,7.038031339645386
1762168192.327272,34.0,-3.0,-990.0,1,0,0,2.109830856323242,0.0,7.038031339645386
1762168192.4275982,49.0,26.0,-1029.0,1,0,0,2.2101571559906006,0.0,7.038031339645386
1762168192.5279498,10.0,1.0,-999.0,1,0,0,2.3105087280273438,0.0,7.038031339645386
1762168192.628433,31.0,12.0,-985.0,1,0,0,2.410991907119751,0.0,7.038031339645386
1762168192.729404,38.0,12.0,-1013.0,0,0,0,2.410991907119751,0.0,7.038031339645386
1762168192.8296454,40.0,4.0,-979.0,0,0,0,2.410991907119751,0.0,7.038031339645386
1762168192.9299722,33.0,-29.0,-1038.0,0,0,0,2.410991907119751,0.0,7.038031339645386
1762168193.0303557,39.0,32.0,-991.0,0,0,0,2.410991907119751,0.0,7.038031339645386
1762168193.130976,19.0,-18.0,-1060.0,0,0,0,2.410991907119751,0.0,7.038031339645386
1762168193.2317877,20.0,27.0,-1028.0,1,0,0,2.51180362701416,0.0,7.038031339645386
1762168193.332656,-9.0,-1.0,-982.0,1,0,0,2.6126718521118164,0.0,7.038031339645386
1762168193.4329355,31.0,11.0,-959.0,1,0,1,2.712951421737671,0.0,7.13831090927124
1762168193.5333397,24.0,-11.0,-1017.0,1,0,1,2.8133556842803955,0.0,7.238715171813965
1762168193.6336076,36.0,-11.0,-980.0,1,0,1,2.913623571395874,0.0,7.338983058929443
1762168193.734058,-1.0,-16.0,-971.0,1,0,1,3.0140738487243652,0.0,7.439433336257935
1762168193.834492,6.0,10.0,-936.0,1,0,0,3.1145079135894775,0.0,7.439433336257935
1762168193.935098,35.0,-17.0,-992.0,1,0,0,3.215113878250122,0.0,7.439433336257935
1762168194.0357175,35.0,-4.0,-949.0,1,0,0,3.3157334327697754,0.0,7.439433336257935
1762168194.136498,17.0,7.0,-982.0,1,0,0,3.4165139198303223,0.0,7.439433336257935
1762168194.2370236,39.0,-32.0,-1007.0,1,0,0,3.5170395374298096,0.0,7.439433336257935
1762168194.3374414,32.0,-14.0,-987.0,1,0,0,3.617457389831543,0.0,7.439433336257935
1762168194.4379518,34.0,8.0,-988.0,1,0,0,3.7179677486419678,0.0,7.439433336257935
1762168194.5382125,34.0,8.0,-988.0,1,0,0,3.8182284832000732,0.0,7.439433336257935
1762168194.638442,7.0,1.0,-978.0,1,0,0,3.9184579849243164,0.0,7.439433336257935
1762168194.7386112,7.0,1.0,-978.0,1,0,0,4.018627166748047,0.0,7.439433336257935
1762168194.8392034,19.0,-8.0,-988.0,1,0,0,4.1192193031311035,0.0,7.439433336257935
1762168194.939553,7.0,1.0,-1023.0,1,0,0,4.219568967819214,0.0,7.439433336257935
1762168195.040286,0.0,-3.0,-1007.0,1,0,0,4.3203020095825195,0.0,7.439433336257935
1762168195.1407337,21.0,-8.0,-1047.0,1,0,0,4.420749664306641,0.0,7.439433336257935
1762168195.2410667,1.0,8.0,-977.0,1,0,0,4.521082639694214,0.0,7.439433336257935
1762168195.3413596,1.0,-16.0,-1058.0,0,0,0,4.521082639694214,0.0,7.439433336257935
1762168195.4417422,13.0,2.0,-999.0,0,0,0,4.521082639694214,0.0,7.439433336257935
1762168195.5423958,13.0,13.0,-1016.0,0,0,0,4.521082639694214,0.0,7.439433336257935
1762168195.6427498,23.0,-10.0,-993.0,0,0,0,4.521082639694214,0.0,7.439433336257935
1762168195.7433631,2.0,-1.0,-1010.0,0,0,0,4.521082639694214,0.0,7.439433336257935
1762168195.8436773,16.0,22.0,-1039.0,0,0,0,4.521082639694214,0.0,7.439433336257935
1762168195.9439456,11.0,-2.0,-1030.0,0,0,0,4.521082639694214,0.0,7.439433336257935
1762168196.0442553,22.0,-1.0,-999.0,0,0,0,4.521082639694214,0.0,7.439433336257935
1762168196.1449714,8.0,-1.0,-1003.0,0,0,0,4.521082639694214,0.0,7.439433336257935
1762168196.2454736,0.0,4.0,-991.0,0,0,0,4.521082639694214,0.0,7.439433336257935
1762168196.3462312,-3.0,-21.0,-1029.0,0,0,0,4.521082639694214,0.0,7.439433336257935
1762168196.4465733,11.0,28.0,-1007.0,0,0,0,4.521082639694214,0.0,7.439433336257935
1762168196.5472474,16.0,25.0,-993.0,0,0,0,4.521082639694214,0.0,7.439433336257935
1762168196.6475246,10.0,25.0,-977.0,1,0,0,4.621359825134277,0.0,7.439433336257935
1762168196.7481291,-17.0,12.0,-989.0,1,0,0,4.721964359283447,0.0,7.439433336257935
1762168196.8487308,22.0,21.0,-1017.0,1,0,0,4.822566032409668,0.0,7.439433336257935
1762168196.9491374,11.0,0.0,-1013.0,1,0,0,4.922972679138184,0.0,7.439433336257935
1762168197.049306,8.0,8.0,-964.0,0,0,0,4.922972679138184,0.0,7.439433336257935
1762168197.149985,-7.0,-19.0,-975.0,0,0,0,4.922972679138184,0.0,7.439433336257935
1762168197.2502747,3.0,0.0,-965.0,0,0,0,4.922972679138184,0.0,7.439433336257935
1762168197.3506093,-3.0,10.0,-964.0,1,0,0,5.0233073234558105,0.0,7.439433336257935
1762168197.4510794,-20.0,-16.0,-1006.0,1,0,0,5.123777389526367,0.0,7.439433336257935
1762168197.5515618,5.0,15.0,-1052.0,1,0,0,5.224259853363037,0.0,7.439433336257935
1762168197.652388,-2.0,4.0,-1027.0,0,0,0,5.224259853363037,0.0,7.439433336257935
1762168197.7526207,17.0,17.0,-966.0,0,0,0,5.224259853363037,0.0,7.439433336257935
1762168197.8533888,-4.0,17.0,-993.0,0,0,0,5.224259853363037,0.0,7.439433336257935
1762168197.9536655,-10.0,19.0,-1001.0,0,0,0,5.224259853363037,0.0,7.439433336257935
1762168198.054111,-22.0,-1.0,-1031.0,0,0,0,5.224259853363037,0.0,7.439433336257935
1762168198.154653,-22.0,-1.0,-1031.0,0,0,0,5.224259853363037,0.0,7.439433336257935
1762168198.2550013,1.0,0.0,-991.0,0,1,0,5.224259853363037,0.10034823417663574,7.439433336257935
1762168198.3552246,-41.0,0.0,-979.0,0,2,0,5.224259853363037,0.3007948398590088,7.439433336257935
1762168198.4563959,-27.0,-20.0,-1004.0,0,2,0,5.224259853363037,0.5031373500823975,7.439433336257935
1762168198.556673,0.0,-13.0,-1017.0,0,2,0,5.224259853363037,0.7036917209625244,7.439433336257935
1762168198.65709,-4.0,-10.0,-980.0,0,2,0,5.224259853363037,0.9045255184173584,7.439433336257935
1762168198.7574935,18.0,-31.0,-984.0,0,2,0,5.224259853363037,1.105332612991333,7.439433336257935
1762168198.857803,-2.0,18.0,-999.0,0,2,0,5.224259853363037,1.3059518337249756,7.439433336257935
1762168198.958001,12.0,9.0,-1011.0,0,2,0,5.224259853363037,1.506347417831421,7.439433336257935
1762168199.0585861,-9.0,0.0,-1008.0,0,2,0,5.224259853363037,1.7075178623199463,7.439433336257935
1762168199.1591866,8.0,-3.0,-1010.0,0,2,0,5.224259853363037,1.9087188243865967,7.439433336257935
1762168199.2599306,-5.0,-16.0,-1005.0,0,2,0,5.224259853363037,2.1102068424224854,7.439433336257935
1762168199.3603253,-8.0,0.0,-962.0,0,2,0,5.224259853363037,2.3109962940216064,7.439433336257935
1762168199.4605532,29.0,0.0,-968.0,0,2,0,5.224259853363037,2.5114519596099854,7.439433336257935
1762168199.5607214,-20.0,0.0,-1025.0,0,2,0,5.224259853363037,2.7117884159088135,7.439433336257935
1762168199.6608994,-3.0,10.0,-1038.0,0,2,0,5.224259853363037,2.912144422531128,7.439433336257935
1762168199.7613046,-4.0,2.0,-1019.0,0,2,0,5.224259853363037,3.11295485496521,7.439433336257935
1762168199.8619819,-16.0,-7.0,-1016.0,0,2,0,5.224259853363037,3.3143093585968018,7.439433336257935
1762168199.9625788,31.0,13.0,-1002.0,1,2,0,5.324856758117676,3.515503168106079,7.439433336257935
1762168200.063014,21.0,-7.0,-992.0,1,2,0,5.425292015075684,3.7163736820220947,7.439433336257935
1762168200.1631765,29.0,7.0,-993.0,1,2,0,5.525454521179199,3.916698694229126,7.439433336257935
1762168200.2634938,25.0,-2.0,-1001.0,1,2,0,5.625771760940552,4.117333173751831,7.439433336257935
1762168200.363695,43.0,27.0,-993.0,1,1,0,5.725972890853882,4.217534303665161,7.439433336257935
1762168200.4640896,18.0,6.0,-1011.0,1,0,0,5.826367616653442,4.217534303665161,7.439433336257935
1762168200.5644615,54.0,-11.0,-983.0,1,0,0,5.926739454269409,4.217534303665161,7.439433336257935
1762168200.6648567,22.0,3.0,-985.0,0,0,0,5.926739454269409,4.217534303665161,7.439433336257935
1762168200.765148,8.0,16.0,-977.0,0,0,0,5.926739454269409,4.217534303665161,7.439433336257935
1762168200.8653538,31.0,25.0,-982.0,0,0,0,5.926739454269409,4.217534303665161,7.439433336257935
1762168200.9659772,0.0,-16.0,-1001.0,0,0,0,5.926739454269409,4.217534303665161,7.439433336257935
1762168201.0662293,2.0,-2.0,-996.0,0,0,0,5.926739454269409,4.217534303665161,7.439433336257935
1762168201.166744,32.0,15.0,-986.0,0,0,0,5.926739454269409,4.217534303665161,7.439433336257935
1762168201.267324,3.0,34.0,-996.0,0,0,0,5.926739454269409,4.217534303665161,7.439433336257935
1762168201.3677022,3.0,34.0,-996.0,0,0,0,5.926739454269409,4.217534303665161,7.439433336257935
1762168201.4691343,24.0,-6.0,-1045.0,0,0,0,5.926739454269409,4.217534303665161,7.439433336257935
1762168201.5692828,19.0,-8.0,-1019.0,0,0,0,5.926739454269409,4.217534303665161,7.439433336257935
1762168201.6696587,39.0,0.0,-1036.0,0,0,0,5.926739454269409,4.217534303665161,7.439433336257935
1762168201.7699091,3.0,-7.0,-1053.0,0,0,0,5.926739454269409,4.217534303665161,7.439433336257935
1762168201.8704226,0.0,-14.0,-1008.0,0,0,0,5.926739454269409,4.217534303665161,7.439433336257935
1762168201.9706285,17.0,-32.0,-1041.0,0,0,0,5.926739454269409,4.217534303665161,7.439433336257935
1762168202.0711837,17.0,-36.0,-1004.0,0,0,0,5.926739454269409,4.217534303665161,7.439433336257935
1762168202.1714742,11.0,-11.0,-1031.0,0,0,0,5.926739454269409,4.217534303665161,7.439433336257935
1762168202.2720628,32.0,7.0,-953.0,0,0,0,5.926739454269409,4.217534303665161,7.439433336257935
1762168202.3725874,18.0,-2.0,-997.0,0,0,0,5.926739454269409,4.217534303665161,7.439433336257935
1762168202.4731643,14.0,7.0,-1013.0,0,0,0,5.926739454269409,4.217534303665161,7.439433336257935
1762168202.5735407,12.0,0.0,-990.0,0,0,0,5.926739454269409,4.217534303665161,7.439433336257935
1762168202.6742232,4.0,22.0,-980.0,0,0,0,5.926739454269409,4.217534303665161,7.439433336257935
1762168202.7744575,32.0,1.0,-977.0,0,0,0,5.926739454269409,4.217534303665161,7.439433336257935
1762168202.8752444,11.0,-5.0,-999.0,0,0,0,5.926739454269409,4.217534303665161,7.439433336257935
1762168202.9756358,0.0,11.0,-1003.0,0,0,0,5.926739454269409,4.217534303665161,7.439433336257935
1762168203.0763314,33.0,-32.0,-1008.0,0,0,0,5.926739454269409,4.217534303665161,7.439433336257935
1762168203.1766381,28.0,-12.0,-937.0,0,0,0,5.926739454269409,4.217534303665161,7.439433336257935
1762168203.2769234,60.0,-6.0,-1012.0,0,0,0,5.926739454269409,4.217534303665161,7.439433336257935
1762168203.3772132,41.0,14.0,-980.0,0,0,0,5.926739454269409,4.217534303665161,7.439433336257935
1762168203.477796,5.0,-15.0,-1031.0,0,0,0,5.926739454269409,4.217534303665161,7.439433336257935
1762168203.578557,23.0,7.0,-974.0,0,0,0,5.926739454269409,4.217534303665161,7.439433336257935
1762168203.6792371,41.0,-7.0,-1001.0,0,0,0,5.926739454269409,4.217534303665161,7.439433336257935
1762168203.779588,25.0,22.0,-974.0,0,0,0,5.926739454269409,4.217534303665161,7.439433336257935
1762168203.8798676,35.0,5.0,-983.0,0,0,0,5.926739454269409,4.217534303665161,7.439433336257935
1762168203.9803357,10.0,6.0,-1041.0,0,0,0,5.926739454269409,4.217534303665161,7.439433336257935
1762168204.0807295,0.0,22.0,-979.0,0,0,0,5.926739454269409,4.217534303665161,7.439433336257935
1762168204.181062,31.0,-8.0,-1011.0,0,0,0,5.926739454269409,4.217534303665161,7.439433336257935
1762168204.281524,44.0,-3.0,-982.0,0,0,0,5.926739454269409,4.217534303665161,7.439433336257935
1762168204.3817856,39.0,10.0,-1016.0,0,0,0,5.926739454269409,4.217534303665161,7.439433336257935
1762168204.4823081,10.0,-16.0,-994.0,0,0,0,5.926739454269409,4.217534303665161,7.439433336257935
1762168204.5828345,41.0,16.0,-1011.0,0,0,0,5.926739454269409,4.217534303665161,7.439433336257935
1762168204.6833813,45.0,-10.0,-980.0,0,0,0,5.926739454269409,4.217534303665161,7.439433336257935
1762168204.784131,44.0,-3.0,-982.0,0,0,0,5.926739454269409,4.217534303665161,7.439433336257935
1762168204.8847914,5.0,3.0,-988.0,0,0,0,5.926739454269409,4.217534303665161,7.439433336257935
1762168204.985086,11.0,14.0,-991.0,1,0,0,6.027034044265747,4.217534303665161,7.439433336257935
1762168205.085507,-6.0,28.0,-1011.0,1,0,0,6.127454996109009,4.217534303665161,7.439433336257935
1762168205.1856668,19.0,4.0,-1018.0,1,0,0,6.227614879608154,4.217534303665161,7.439433336257935
1762168205.2862253,-2.0,5.0,-992.0,1,0,0,6.328173398971558,4.217534303665161,7.439433336257935
1762168205.3869212,14.0,-6.0,-1015.0,1,0,0,6.428869247436523,4.217534303665161,7.439433336257935
1762168205.487204,28.0,31.0,-992.0,0,0,0,6.428869247436523,4.217534303665161,7.439433336257935
1762168205.5874405,1.0,-8.0,-1002.0,0,0,0,6.428869247436523,4.217534303665161,7.439433336257935
1762168205.6882532,19.0,8.0,-1014.0,0,0,0,6.428869247436523,4.217534303665161,7.439433336257935
1762168205.7884326,-11.0,16.0,-1008.0,0,0,0,6.428869247436523,4.217534303665161,7.439433336257935
1762168205.8887424,45.0,1.0,-987.0,0,0,0,6.428869247436523,4.217534303665161,7.439433336257935
1762168205.9894476,3.0,2.0,-1021.0,0,0,0,6.428869247436523,4.217534303665161,7.439433336257935
1762168206.0901096,-6.0,24.0,-974.0,0,0,0,6.428869247436523,4.217534303665161,7.439433336257935
1762168206.1907566,31.0,-6.0,-949.0,0,0,0,6.428869247436523,4.217534303665161,7.439433336257935
1762168206.2911696,16.0,-30.0,-1033.0,0,0,0,6.428869247436523,4.217534303665161,7.439433336257935
1762168206.3918598,-14.0,3.0,-1061.0,0,0,0,6.428869247436523,4.217534303665161,7.439433336257935
1762168206.492223,-4.0,4.0,-1044.0,0,0,0,6.428869247436523,4.217534303665161,7.439433336257935
1762168206.5928948,16.0,-6.0,-984.0,0,0,0,6.428869247436523,4.217534303665161,7.439433336257935
1762168206.6935675,19.0,-15.0,-1034.0,0,0,0,6.428869247436523,4.217534303665161,7.439433336257935
1762168206.7939608,36.0,-1.0,-1047.0,0,0,0,6.428869247436523,4.217534303665161,7.439433336257935
1762168206.8941586,7.0,-9.0,-972.0,0,0,0,6.428869247436523,4.217534303665161,7.439433336257935
1762168206.9948964,33.0,4.0,-995.0,0,0,0,6.428869247436523,4.217534303665161,7.439433336257935
1762168207.0950413,17.0,27.0,-992.0,0,0,0,6.428869247436523,4.217534303665161,7.439433336257935
1762168207.1956563,12.0,-18.0,-1041.0,0,0,0,6.428869247436523,4.217534303665161,7.439433336257935
1762168207.296196,14.0,-2.0,-1016.0,0,0,0,6.428869247436523,4.217534303665161,7.439433336257935
1762168207.396437,-14.0,-10.0,-1033.0,0,0,0,6.428869247436523,4.217534303665161,7.439433336257935
1762168207.4970121,12.0,21.0,-1027.0,0,0,0,6.428869247436523,4.217534303665161,7.439433336257935
1762168207.5977867,-6.0,15.0,-1025.0,0,0,0,6.428869247436523,4.217534303665161,7.439433336257935
1762168207.698208,18.0,-1.0,-1015.0,0,0,0,6.428869247436523,4.217534303665161,7.439433336257935
1762168207.7986803,15.0,5.0,-966.0,0,0,0,6.428869247436523,4.217534303665161,7.439433336257935
1762168207.8992453,10.0,-19.0,-993.0,0,0,0,6.428869247436523,4.217534303665161,7.439433336257935
1762168207.9994664,26.0,4.0,-967.0,0,0,0,6.428869247436523,4.217534303665161,7.439433336257935
1762168208.0999606,11.0,3.0,-1010.0,0,0,0,6.428869247436523,4.217534303665161,7.439433336257935
1762168208.200192,17.0,1.0,-990.0,0,0,0,6.428869247436523,4.217534303665161,7.439433336257935
1762168208.3007283,17.0,-11.0,-962.0,0,0,0,6.428869247436523,4.217534303665161,7.439433336257935
1762168208.4011123,1.0,-11.0,-981.0,0,0,0,6.428869247436523,4.217534303665161,7.439433336257935
1762168208.501582,9.0,-27.0,-1006.0,0,0,0,6.428869247436523,4.217534303665161,7.439433336257935
1762168208.6019905,15.0,0.0,-1000.0,0,0,0,6.428869247436523,4.217534303665161,7.439433336257935
1762168208.7022939,31.0,8.0,-1014.0,0,0,0,6.428869247436523,4.217534303665161,7.439433336257935
1762168208.8024952,8.0,-9.0,-1019.0,0,0,0,6.428869247436523,4.217534303665161,7.439433336257935
1762168208.9031641,1.0,14.0,-1006.0,0,0,0,6.428869247436523,4.217534303665161,7.439433336257935
1762168209.0038936,43.0,-6.0,-999.0,0,0,0,6.428869247436523,4.217534303665161,7.439433336257935
1762168209.104222,17.0,19.0,-1021.0,0,0,0,6.428869247436523,4.217534303665161,7.439433336257935
1762168209.2044723,9.0,-17.0,-987.0,0,0,0,6.428869247436523,4.217534303665161,7.439433336257935
1762168209.305085,16.0,-10.0,-1020.0,0,0,0,6.428869247436523,4.217534303665161,7.439433336257935
1762168209.4054575,10.0,10.0,-983.0,0,0,0,6.428869247436523,4.217534303665161,7.439433336257935
1762168209.5063798,0.0,-3.0,-1006.0,0,0,0,6.428869247436523,4.217534303665161,7.439433336257935
1762168209.606915,29.0,5.0,-983.0,0,0,0,6.428869247436523,4.217534303665161,7.439433336257935
1762168209.7074263,11.0,10.0,-998.0,0,0,0,6.428869247436523,4.217534303665161,7.439433336257935
1762168209.8077188,5.0,-6.0,-1012.0,0,0,0,6.428869247436523,4.217534303665161,7.439433336257935
1762168209.9080431,-16.0,10.0,-983.0,0,0,0,6.428869247436523,4.217534303665161,7.439433336257935
1762168210.00829,37.0,-10.0,-953.0,0,0,0,6.428869247436523,4.217534303665161,7.439433336257935
1762168210.1088896,13.0,0.0,-983.0,0,0,0,6.428869247436523,4.217534303665161,7.439433336257935
1762168210.2098093,4.0,-12.0,-1013.0,0,0,0,6.428869247436523,4.217534303665161,7.439433336257935
1762168210.31074,9.0,7.0,-980.0,0,0,0,6.428869247436523,4.217534303665161,7.439433336257935
1762168210.411064,36.0,-6.0,-974.0,0,0,0,6.428869247436523,4.217534303665161,7.439433336257935
1762168210.511408,-4.0,-4.0,-962.0,0,0,0,6.428869247436523,4.217534303665161,7.439433336257935
1762168210.6120665,17.0,-1.0,-991.0,0,0,0,6.428869247436523,4.217534303665161,7.439433336257935
1762168210.7128768,5.0,-2.0,-1034.0,0,0,0,6.428869247436523,4.217534303665161,7.439433336257935
1762168210.813359,20.0,-13.0,-1015.0,0,0,0,6.428869247436523,4.217534303665161,7.439433336257935
1762168210.9136357,-3.0,-11.0,-998.0,0,0,0,6.428869247436523,4.217534303665161,7.439433336257935
1762168211.0139134,15.0,-11.0,-965.0,0,0,0,6.428869247436523,4.217534303665161,7.439433336257935
1762168211.1142452,-12.0,-6.0,-998.0,1,0,0,6.529201030731201,4.217534303665161,7.439433336257935
1762168211.2147508,10.0,-2.0,-990.0,1,0,0,6.629706621170044,4.217534303665161,7.439433336257935
1762168211.3149958,25.0,-22.0,-1022.0,2,0,0,6.8301966190338135,4.217534303665161,7.439433336257935
1762168211.4160104,15.0,-4.0,-997.0,2,0,0,7.032225847244263,4.217534303665161,7.439433336257935
1762168211.516372,6.0,-18.0,-1014.0,2,0,0,7.2329490184783936,4.217534303665161,7.439433336257935
1762168211.616665,15.0,-25.0,-1049.0,2,0,0,7.433534860610962,4.217534303665161,7.439433336257935
1762168211.7170155,37.0,-2.0,-1018.0,2,0,0,7.634236097335815,4.217534303665161,7.439433336257935
1762168211.8174155,22.0,-6.0,-1018.0,2,0,0,7.835036039352417,4.217534303665161,7.439433336257935
1762168211.9181044,39.0,-18.0,-967.0,2,0,0,8.03641390800476,4.217534303665161,7.439433336257935
1762168212.0188818,21.0,-17.0,-994.0,2,0,0,8.237968683242798,4.217534303665161,7.439433336257935
1762168212.1194465,26.0,-9.0,-978.0,2,0,0,8.439098119735718,4.217534303665161,7.439433336257935
1762168212.219606,15.0,-1.0,-969.0,2,0,0,8.639416933059692,4.217534303665161,7.439433336257935
1762168212.319974,7.0,-1.0,-993.0,2,0,0,8.840152978897095,4.217534303665161,7.439433336257935
1762168212.4206314,0.0,1.0,-956.0,2,0,0,9.041467905044556,4.217534303665161,7.439433336257935
1762168212.5209973,44.0,10.0,-956.0,2,0,0,9.242199659347534,4.217534303665161,7.439433336257935
1762168212.6214848,20.0,-17.0,-1015.0,2,0,0,9.443174600601196,4.217534303665161,7.439433336257935
1762168212.721866,33.0,2.0,-1003.0,2,0,0,9.6439368724823,4.217534303665161,7.439433336257935
1762168212.8221056,24.0,-3.0,-1015.0,2,0,0,9.844416379928589,4.217534303665161,7.439433336257935
1762168212.9225216,-16.0,-5.0,-1006.0,2,0,0,10.04524827003479,4.217534303665161,7.439433336257935
1762168213.0227149,11.0,-6.0,-1029.0,2,0,0,10.24563479423523,4.217534303665161,7.439433336257935
1762168213.123136,46.0,3.0,-1020.0,2,0,0,10.446477174758911,4.217534303665161,7.439433336257935
1762168213.2235048,27.0,-30.0,-983.0,1,0,0,10.54684591293335,4.217534303665161,7.439433336257935
1762168213.3239534,19.0,-11.0,-1038.0,0,0,0,10.54684591293335,4.217534303665161,7.439433336257935
1762168213.4243543,7.0,-9.0,-1008.0,0,0,0,10.54684591293335,4.217534303665161,7.439433336257935
1762168213.5249739,6.0,-4.0,-1016.0,0,0,0,10.54684591293335,4.217534303665161,7.439433336257935
1762168213.625751,18.0,0.0,-996.0,0,0,0,10.54684591293335,4.217534303665161,7.439433336257935
1762168213.7261455,31.0,-7.0,-999.0,0,0,0,10.54684591293335,4.217534303665161,7.439433336257935
1762168213.826481,-21.0,-12.0,-994.0,0,0,0,10.54684591293335,4.217534303665161,7.439433336257935
1762168213.927361,9.0,15.0,-1008.0,0,0,0,10.54684591293335,4.217534303665161,7.439433336257935
1762168214.027851,15.0,-3.0,-986.0,0,0,0,10.54684591293335,4.217534303665161,7.439433336257935
1762168214.1281428,15.0,18.0,-973.0,0,0,0,10.54684591293335,4.217534303665161,7.439433336257935
1762168214.2284875,11.0,7.0,-973.0,0,0,0,10.54684591293335,4.217534303665161,7.439433336257935
1762168214.3287897,14.0,4.0,-1004.0,0,0,0,10.54684591293335,4.217534303665161,7.439433336257935
1762168214.4294007,2.0,-14.0,-1033.0,0,0,0,10.54684591293335,4.217534303665161,7.439433336257935
1762168214.529974,27.0,-10.0,-1006.0,0,0,0,10.54684591293335,4.217534303665161,7.439433336257935
1762168214.6304803,3.0,5.0,-1028.0,0,0,0,10.54684591293335,4.217534303665161,7.439433336257935
1762168214.7306623,3.0,3.0,-1015.0,0,0,0,10.54684591293335,4.217534303665161,7.439433336257935
1762168214.8308535,12.0,-3.0,-1017.0,0,0,0,10.54684591293335,4.217534303665161,7.439433336257935
1762168214.931481,-10.0,-1.0,-1011.0,0,0,0,10.54684591293335,4.217534303665161,7.439433336257935
1762168215.0320275,0.0,-23.0,-1040.0,0,0,0,10.54684591293335,4.217534303665161,7.439433336257935
1762168215.132579,6.0,-7.0,-1007.0,0,0,0,10.54684591293335,4.217534303665161,7.439433336257935
1762168215.2328243,30.0,7.0,-992.0,0,0,0,10.54684591293335,4.217534303665161,7.439433336257935
1762168215.3329997,-9.0,-8.0,-1028.0,0,0,0,10.54684591293335,4.217534303665161,7.439433336257935
1762168215.4335716,17.0,14.0,-996.0,0,0,0,10.54684591293335,4.217534303665161,7.439433336257935
1762168215.5338655,25.0,5.0,-954.0,0,0,0,10.54684591293335,4.217534303665161,7.439433336257935
1762168215.6342623,7.0,26.0,-990.0,0,0,0,10.54684591293335,4.217534303665161,7.439433336257935
1762168215.7351346,-8.0,-18.0,-988.0,0,0,0,10.54684591293335,4.217534303665161,7.439433336257935
1762168215.8353214,-7.0,-9.0,-1009.0,0,0,0,10.54684591293335,4.217534303665161,7.439433336257935
1762168215.9355917,-2.0,-19.0,-1010.0,0,0,0,10.54684591293335,4.217534303665161,7.439433336257935
1762168216.0359511,-1.0,-6.0,-993.0,0,0,0,10.54684591293335,4.217534303665161,7.439433336257935
1762168216.136328,7.0,-13.0,-977.0,0,0,0,10.54684591293335,4.217534303665161,7.439433336257935
1762168216.236539,14.0,-23.0,-1015.0,0,0,0,10.54684591293335,4.217534303665161,7.439433336257935
1762168216.3369517,-17.0,10.0,-967.0,0,0,0,10.54684591293335,4.217534303665161,7.439433336257935
1762168216.4375918,-3.0,4.0,-990.0,0,0,0,10.54684591293335,4.217534303665161,7.439433336257935
1762168216.5379393,36.0,-2.0,-995.0,0,0,0,10.54684591293335,4.217534303665161,7.439433336257935
1762168216.6383104,-6.0,17.0,-954.0,0,0,0,10.54684591293335,4.217534303665161,7.439433336257935
1762168216.73851,-2.0,-3.0,-1026.0,0,0,0,10.54684591293335,4.217534303665161,7.439433336257935
1762168216.8388526,21.0,24.0,-1010.0,0,0,0,10.54684591293335,4.217534303665161,7.439433336257935
1762168216.9397027,19.0,32.0,-998.0,0,0,0,10.54684591293335,4.217534303665161,7.439433336257935
1762168217.0405273,23.0,12.0,-1009.0,0,0,0,10.54684591293335,4.217534303665161,7.439433336257935
1762168217.1407554,3.0,-5.0,-987.0,0,0,0,10.54684591293335,4.217534303665161,7.439433336257935
1762168217.2411518,-16.0,-21.0,-1011.0,0,0,0,10.54684591293335,4.217534303665161,7.439433336257935
1762168217.3414614,28.0,-13.0,-999.0,0,0,0,10.54684591293335,4.217534303665161,7.439433336257935
1762168217.4420435,7.0,3.0,-985.0,0,0,0,10.54684591293335,4.217534303665161,7.439433336257935
1762168217.5424266,-15.0,4.0,-984.0,0,0,0,10.54684591293335,4.217534303665161,7.439433336257935
1762168217.642945,32.0,21.0,-978.0,0,0,0,10.54684591293335,4.217534303665161,7.439433336257935
1762168217.7432313,35.0,4.0,-1002.0,0,0,0,10.54684591293335,4.217534303665161,7.439433336257935
1762168217.8439069,-12.0,8.0,-978.0,0,0,0,10.54684591293335,4.217534303665161,7.439433336257935
1762168217.9441402,4.0,-12.0,-983.0,0,0,0,10.54684591293335,4.217534303665161,7.439433336257935
1762168218.0449529,29.0,3.0,-1032.0,0,0,0,10.54684591293335,4.217534303665161,7.439433336257935
1762168218.1457918,-5.0,-2.0,-1009.0,0,0,0,10.54684591293335,4.217534303665161,7.439433336257935
1762168218.2461684,15.0,-4.0,-999.0,0,0,0,10.54684591293335,4.217534303665161,7.439433336257935
1762168218.346324,12.0,-30.0,-1030.0,0,0,0,10.54684591293335,4.217534303665161,7.439433336257935
1762168218.4468856,-5.0,12.0,-976.0,0,0,0,10.54684591293335,4.217534303665161,7.439433336257935
1762168218.547438,-13.0,3.0,-975.0,0,0,0,10.54684591293335,4.217534303665161,7.439433336257935
1762168218.6480463,0.0,2.0,-991.0,0,0,0,10.54684591293335,4.217534303665161,7.439433336257935
1762168218.7485495,-2.0,-8.0,-982.0,0,0,0,10.54684591293335,4.217534303665161,7.439433336257935
1762168218.8494458,-3.0,-6.0,-1010.0,0,0,0,10.54684591293335,4.217534303665161,7.439433336257935
1762168218.9495935,-17.0,-3.0,-995.0,0,0,0,10.54684591293335,4.217534303665161,7.439433336257935
1762168219.0499144,-4.0,-25.0,-989.0,0,0,0,10.54684591293335,4.217534303665161,7.439433336257935
1762168219.1503046,7.0,-16.0,-1000.0,0,0,0,10.54684591293335,4.217534303665161,7.439433336257935
1762168219.2506962,5.0,10.0,-979.0,0,0,0,10.54684591293335,4.217534303665161,7.439433336257935
1762168219.3512716,22.0,10.0,-964.0,0,0,0,10.54684591293335,4.217534303665161,7.439433336257935
1762168219.4517863,18.0,0.0,-994.0,0,0,0,10.54684591293335,4.217534303665161,7.439433336257935
1762168219.5523667,1.0,-2.0,-979.0,0,0,0,10.54684591293335,4.217534303665161,7.439433336257935
1762168219.6528301,5.0,6.0,-1032.0,0,0,0,10.54684591293335,4.217534303665161,7.439433336257935
1762168219.7530808,0.0,10.0,-997.0,0,0,0,10.54684591293335,4.217534303665161,7.439433336257935
1762168219.8535767,0.0,-20.0,-1002.0,0,0,0,10.54684591293335,4.217534303665161,7.439433336257935
1762168219.9542387,8.0,-7.0,-995.0,0,0,0,10.54684591293335,4.217534303665161,7.439433336257935
1762168220.054567,-4.0,-24.0,-1005.0,0,0,0,10.54684591293335,4.217534303665161,7.439433336257935
1762168220.1551912,-19.0,-4.0,-991.0,0,0,0,10.54684591293335,4.217534303665161,7.439433336257935
1762168220.2555256,-10.0,3.0,-1009.0,0,0,0,10.54684591293335,4.217534303665161,7.439433336257935
1762168220.3558824,-5.0,0.0,-1017.0,0,0,0,10.54684591293335,4.217534303665161,7.439433336257935
1762168220.4562733,10.0,-8.0,-989.0,0,0,0,10.54684591293335,4.217534303665161,7.439433336257935
1762168220.556708,3.0,24.0,-973.0,0,0,0,10.54684591293335,4.217534303665161,7.439433336257935
1762168220.657386,9.0,-14.0,-974.0,0,0,0,10.54684591293335,4.217534303665161,7.439433336257935
1762168220.75774,0.0,-6.0,-1026.0,0,0,0,10.54684591293335,4.217534303665161,7.439433336257935
1762168220.8580568,-1.0,1.0,-999.0,0,0,0,10.54684591293335,4.217534303665161,7.439433336257935
1762168220.9583225,-15.0,-14.0,-1014.0,0,0,0,10.54684591293335,4.217534303665161,7.439433336257935
1762168221.0588043,9.0,-6.0,-1005.0,0,0,0,10.54684591293335,4.217534303665161,7.439433336257935
1762168221.1596527,0.0,37.0,-1015.0,0,0,0,10.54684591293335,4.217534303665161,7.439433336257935
1762168221.260021,17.0,-1.0,-990.0,0,0,0,10.54684591293335,4.217534303665161,7.439433336257935
1762168221.3607144,34.0,-1.0,-1051.0,0,0,0,10.54684591293335,4.217534303665161,7.439433336257935
1762168221.4611058,29.0,-17.0,-1065.0,0,0,0,10.54684591293335,4.217534303665161,7.439433336257935
1762168221.5617778,42.0,0.0,-1008.0,0,0,0,10.54684591293335,4.217534303665161,7.439433336257935
1762168221.6624885,1.0,6.0,-1036.0,0,0,0,10.54684591293335,4.217534303665161,7.439433336257935
1762168221.7631192,9.0,7.0,-1025.0,0,0,0,10.54684591293335,4.217534303665161,7.439433336257935
1762168221.863555,11.0,38.0,-970.0,0,0,0,10.54684591293335,4.217534303665161,7.439433336257935
1762168221.9637427,1.0,8.0,-992.0,0,0,0,10.54684591293335,4.217534303665161,7.439433336257935
1762168222.06417,25.0,-23.0,-1037.0,0,0,0,10.54684591293335,4.217534303665161,7.439433336257935
1762168222.164864,40.0,-19.0,-1015.0,0,0,0,10.54684591293335,4.217534303665161,7.439433336257935
1762168222.2654285,24.0,11.0,-958.0,0,0,0,10.54684591293335,4.217534303665161,7.439433336257935
1762168222.3660007,39.0,25.0,-989.0,0,0,0,10.54684591293335,4.217534303665161,7.439433336257935
1762168222.4663675,60.0,8.0,-1023.0,0,0,0,10.54684591293335,4.217534303665161,7.439433336257935
1762168222.5665145,38.0,6.0,-988.0,0,0,0,10.54684591293335,4.217534303665161,7.439433336257935
1762168222.66677,50.0,14.0,-999.0,0,0,0,10.54684591293335,4.217534303665161,7.439433336257935
1762168222.7672832,48.0,7.0,-987.0,0,0,0,10.54684591293335,4.217534303665161,7.439433336257935
1762168222.8680203,16.0,9.0,-996.0,0,0,0,10.54684591293335,4.217534303665161,7.439433336257935
1762168222.9685,9.0,28.0,-1003.0,0,0,0,10.54684591293335,4.217534303665161,7.439433336257935
1762168223.0689416,13.0,30.0,-1000.0,0,0,0,10.54684591293335,4.217534303665161,7.439433336257935
1762168223.1691742,4.0,10.0,-995.0,0,0,0,10.54684591293335,4.217534303665161,7.439433336257935
1762168223.2700424,8.0,5.0,-974.0,0,0,0,10.54684591293335,4.217534303665161,7.439433336257935
1762168223.3702087,17.0,0.0,-990.0,0,0,0,10.54684591293335,4.217534303665161,7.439433336257935
1762168223.4705453,6.0,16.0,-946.0,0,0,0,10.54684591293335,4.217534303665161,7.439433336257935
1762168223.5711493,18.0,-9.0,-1047.0,0,0,0,10.54684591293335,4.217534303665161,7.439433336257935
1762168223.671914,26.0,10.0,-1002.0,0,0,0,10.54684591293335,4.217534303665161,7.439433336257935
1762168223.7724214,11.0,-1.0,-1026.0,0,0,0,10.54684591293335,4.217534303665161,7.439433336257935
1762168223.8730154,7.0,-5.0,-1010.0,0,0,0,10.54684591293335,4.217534303665161,7.439433336257935
1762168223.973296,5.0,-3.0,-1013.0,1,0,0,10.64712643623352,4.217534303665161,7.439433336257935
1762168224.073962,16.0,-10.0,-1019.0,1,-1,0,10.747792482376099,4.116868257522583,7.439433336257935
1762168224.1745787,8.0,-12.0,-1005.0,1,-1,0,10.848409175872803,4.016251564025879,7.439433336257935
1762168224.2748482,51.0,-23.0,-975.0,1,-1,0,10.948678731918335,3.9159820079803467,7.439433336257935
1762168224.3752522,61.0,-14.0,-1004.0,1,-1,0,11.04908275604248,3.815577983856201,7.439433336257935
1762168224.4755216,39.0,-5.0,-1021.0,1,-1,0,11.149352073669434,3.715308666229248,7.439433336257935
1762168224.575887,39.0,-13.0,-998.0,1,-1,0,11.249717473983765,3.614943265914917,7.439433336257935
1762168224.6766121,32.0,-6.0,-1019.0,1,-1,0,11.35044264793396,3.5142180919647217,7.439433336257935
1762168224.7774286,43.0,-1.0,-1012.0,2,0,0,11.552075624465942,3.5142180919647217,7.439433336257935
1762168224.8777623,54.0,9.0,-974.0,2,-1,0,11.752743005752563,3.413884401321411,7.439433336257935
1762168224.9787183,25.0,-15.0,-982.0,2,-1,0,11.954654932022095,3.3129284381866455,7.439433336257935
1762168225.0793264,30.0,-2.0,-981.0,2,-1,0,12.155871152877808,3.212320327758789,7.439433336257935
1762168225.1799748,24.0,-11.0,-991.0,2,-1,0,12.357167959213257,3.1116719245910645,7.439433336257935
1762168225.2806883,26.0,-11.0,-993.0,2,-1,0,12.558594942092896,3.010958433151245,7.439433336257935
1762168225.381095,11.0,7.0,-1031.0,2,-1,0,12.759408235549927,2.9105517864227295,7.439433336257935
1762168225.4815307,36.0,-10.0,-1022.0,1,-2,0,12.859843969345093,2.7096803188323975,7.439433336257935
1762168225.5818565,38.0,-27.0,-993.0,1,-2,0,12.960169792175293,2.509028673171997,7.439433336257935
1762168225.6823187,-13.0,0.0,-973.0,1,-1,0,13.06063199043274,2.408566474914551,7.439433336257935
1762168225.7827146,10.0,15.0,-989.0,1,0,0,13.161027908325195,2.408566474914551,7.439433336257935
1762168225.8836977,47.0,-22.0,-997.0,0,0,0,13.161027908325195,2.408566474914551,7.439433336257935
1762168225.9843595,49.0,-37.0,-1007.0,0,0,0,13.161027908325195,2.408566474914551,7.439433336257935
1762168226.0847108,8.0,11.0,-1016.0,0,0,0,13.161027908325195,2.408566474914551,7.439433336257935
1762168226.1849167,23.0,-6.0,-1032.0,0,0,0,13.161027908325195,2.408566474914551,7.439433336257935
1762168226.2856822,19.0,-1.0,-1007.0,0,0,0,13.161027908325195,2.408566474914551,7.439433336257935
1762168226.3859441,29.0,-3.0,-1027.0,0,0,0,13.161027908325195,2.408566474914551,7.439433336257935
1762168226.4863513,-1.0,0.0,-996.0,0,0,0,13.161027908325195,2.408566474914551,7.439433336257935
1762168226.5866456,14.0,3.0,-1005.0,0,0,0,13.161027908325195,2.408566474914551,7.439433336257935
1762168226.687368,22.0,-3.0,-988.0,0,0,0,13.161027908325195,2.408566474914551,7.439433336257935
1762168226.787779,10.0,-6.0,-992.0,0,0,0,13.161027908325195,2.408566474914551,7.439433336257935
1762168226.8881252,1.0,1.0,-986.0,0,0,0,13.161027908325195,2.408566474914551,7.439433336257935
1762168226.9885023,21.0,-4.0,-977.0,0,0,0,13.161027908325195,2.408566474914551,7.439433336257935
1762168227.0891833,1.0,12.0,-997.0,0,0,0,13.161027908325195,2.408566474914551,7.439433336257935
1762168227.1899536,44.0,-21.0,-1005.0,0,0,0,13.161027908325195,2.408566474914551,7.439433336257935
1762168227.2905536,36.0,0.0,-992.0,0,0,0,13.161027908325195,2.408566474914551,7.439433336257935
1762168227.390927,28.0,5.0,-1023.0,0,0,0,13.161027908325195,2.408566474914551,7.439433336257935
1762168227.4914904,20.0,-3.0,-957.0,0,0,0,13.161027908325195,2.408566474914551,7.439433336257935
1762168227.5923061,16.0,14.0,-989.0,0,0,0,13.161027908325195,2.408566474914551,7.439433336257935
1762168227.6930566,20.0,8.0,-979.0,0,0,0,13.161027908325195,2.408566474914551,7.439433336257935
1762168227.7933092,33.0,0.0,-1031.0,0,0,0,13.161027908325195,2.408566474914551,7.439433336257935
1762168227.8939884,23.0,20.0,-999.0,0,0,0,13.161027908325195,2.408566474914551,7.439433336257935
1762168227.9942768,26.0,13.0,-997.0,0,0,0,13.161027908325195,2.408566474914551,7.439433336257935
1762168228.0947025,17.0,10.0,-1007.0,0,0,0,13.161027908325195,2.408566474914551,7.439433336257935
1762168228.195438,18.0,-8.0,-988.0,0,0,0,13.161027908325195,2.408566474914551,7.439433336257935
1762168228.2958846,41.0,6.0,-1046.0,0,0,0,13.161027908325195,2.408566474914551,7.439433336257935
1762168228.396079,28.0,15.0,-995.0,0,0,0,13.161027908325195,2.408566474914551,7.439433336257935
1762168228.4962816,26.0,14.0,-995.0,0,0,0,13.161027908325195,2.408566474914551,7.439433336257935
1762168228.5967755,24.0,-6.0,-998.0,0,0,0,13.161027908325195,2.408566474914551,7.439433336257935
1762168228.6970253,44.0,-18.0,-1021.0,0,0,0,13.161027908325195,2.408566474914551,7.439433336257935
1762168228.7977748,33.0,-4.0,-1001.0,0,0,0,13.161027908325195,2.408566474914551,7.439433336257935
1762168228.8985217,17.0,1.0,-985.0,0,0,0,13.161027908325195,2.408566474914551,7.439433336257935
1762168228.9987783,12.0,-10.0,-971.0,0,0,0,13.161027908325195,2.408566474914551,7.439433336257935
1762168229.0989873,12.0,-13.0,-970.0,0,0,0,13.161027908325195,2.408566474914551,7.439433336257935
1762168229.1996858,37.0,-11.0,-1014.0,0,0,0,13.161027908325195,2.408566474914551,7.439433336257935
1762168229.3003945,22.0,-15.0,-986.0,0,0,0,13.161027908325195,2.408566474914551,7.439433336257935
1762168229.4007142,29.0,4.0,-1002.0,0,0,0,13.161027908325195,2.408566474914551,7.439433336257935
1762168229.50134,-1.0,-3.0,-1003.0,0,0,0,13.161027908325195,2.408566474914551,7.439433336257935
1762168229.6014965,-2.0,5.0,-1002.0,0,0,0,13.161027908325195,2.408566474914551,7.439433336257935
1762168229.7017741,24.0,-14.0,-1011.0,0,0,0,13.161027908325195,2.408566474914551,7.439433336257935
1762168229.8021815,8.0,0.0,-1004.0,0,0,0,13.161027908325195,2.408566474914551,7.439433336257935
1762168229.9026115,24.0,-17.0,-980.0,0,0,0,13.161027908325195,2.408566474914551,7.439433336257935
1762168230.0033298,2.0,-2.0,-1006.0,0,0,0,13.161027908325195,2.408566474914551,7.439433336257935
1762168230.1042273,30.0,-8.0,-1022.0,0,0,0,13.161027908325195,2.408566474914551,7.439433336257935
1762168230.2047322,30.0,-13.0,-1001.0,0,0,0,13.161027908325195,2.408566474914551,7.439433336257935
1762168230.3050406,29.0,7.0,-977.0,0,0,0,13.161027908325195,2.408566474914551,7.439433336257935
1762168230.405808,41.0,19.0,-1010.0,0,0,0,13.161027908325195,2.408566474914551,7.439433336257935
1762168230.506465,11.0,4.0,-987.0,0,0,0,13.161027908325195,2.408566474914551,7.439433336257935
1762168230.6073053,16.0,10.0,-1013.0,0,0,0,13.161027908325195,2.408566474914551,7.439433336257935
1762168230.7075279,21.0,14.0,-982.0,0,0,0,13.161027908325195,2.408566474914551,7.439433336257935
1762168230.807898,11.0,21.0,-972.0,0,0,0,13.161027908325195,2.408566474914551,7.439433336257935
1762168230.9085274,15.0,17.0,-987.0,0,0,0,13.161027908325195,2.408566474914551,7.439433336257935
1762168231.0094101,39.0,-16.0,-1022.0,0,0,0,13.161027908325195,2.408566474914551,7.439433336257935
1762168231.1099825,22.0,0.0,-1039.0,0,0,0,13.161027908325195,2.408566474914551,7.439433336257935
1762168231.2105072,14.0,3.0,-1020.0,0,0,0,13.161027908325195,2.408566474914551,7.439433336257935
1762168231.310732,30.0,10.0,-1007.0,0,0,0,13.161027908325195,2.408566474914551,7.439433336257935
1762168231.4110866,23.0,-2.0,-1033.0,0,0,0,13.161027908325195,2.408566474914551,7.439433336257935
1762168231.5115123,31.0,-3.0,-994.0,0,0,0,13.161027908325195,2.408566474914551,7.439433336257935
1762168231.6118255,21.0,4.0,-993.0,0,0,0,13.161027908325195,2.408566474914551,7.439433336257935
1762168231.7123065,29.0,3.0,-983.0,0,0,0,13.161027908325195,2.408566474914551,7.439433336257935
1762168231.813013,26.0,-1.0,-972.0,0,0,0,13.161027908325195,2.408566474914551,7.439433336257935
1762168231.9136832,25.0,-1.0,-1001.0,0,0,0,13.161027908325195,2.408566474914551,7.439433336257935
1762168232.0144007,13.0,0.0,-985.0,0,0,0,13.161027908325195,2.408566474914551,7.439433336257935
1762168232.1148107,18.0,-4.0,-1012.0,0,0,0,13.161027908325195,2.408566474914551,7.439433336257935
1762168232.214984,18.0,-11.0,-1009.0,0,0,0,13.161027908325195,2.408566474914551,7.439433336257935
1762168232.315855,39.0,-25.0,-1009.0,0,0,0,13.161027908325195,2.408566474914551,7.439433336257935
1762168232.41616,28.0,-3.0,-992.0,0,0,0,13.161027908325195,2.408566474914551,7.439433336257935
1762168232.5164375,41.0,-5.0,-1023.0,0,0,0,13.161027908325195,2.408566474914551,7.439433336257935
1762168232.6167533,28.0,25.0,-998.0,0,0,0,13.161027908325195,2.408566474914551,7.439433336257935
1762168232.7169893,39.0,-15.0,-1013.0,0,0,0,13.161027908325195,2.408566474914551,7.439433336257935
1762168232.8174915,11.0,-8.0,-999.0,0,0,0,13.161027908325195,2.408566474914551,7.439433336257935
1762168232.9181564,41.0,-12.0,-1011.0,0,0,0,13.161027908325195,2.408566474914551,7.439433336257935
1762168233.0186021,22.0,-10.0,-992.0,0,0,0,13.161027908325195,2.408566474914551,7.439433336257935
1762168233.1191027,21.0,1.0,-997.0,0,0,0,13.161027908325195,2.408566474914551,7.439433336257935
1762168233.2197676,36.0,-32.0,-994.0,0,0,0,13.161027908325195,2.408566474914551,7.439433336257935
1762168233.3201811,34.0,-8.0,-1013.0,0,0,0,13.161027908325195,2.408566474914551,7.439433336257935
1762168233.4207625,21.0,-18.0,-1003.0,0,0,0,13.161027908325195,2.408566474914551,7.439433336257935
1762168233.5217555,27.0,14.0,-999.0,0,0,0,13.161027908325195,2.408566474914551,7.439433336257935
1762168233.6223426,0.0,4.0,-1015.0,0,0,0,13.161027908325195,2.408566474914551,7.439433336257935
1762168233.7227852,28.0,-7.0,-1000.0,0,0,0,13.161027908325195,2.408566474914551,7.439433336257935
1762168233.823148,20.0,-1.0,-994.0,0,0,0,13.161027908325195,2.408566474914551,7.439433336257935
1762168233.9233134,44.0,-7.0,-974.0,0,0,0,13.161027908325195,2.408566474914551,7.439433336257935
1762168234.0237796,11.0,-10.0,-981.0,0,0,0,13.161027908325195,2.408566474914551,7.439433336257935
1762168234.124414,42.0,-14.0,-980.0,0,0,0,13.161027908325195,2.408566474914551,7.439433336257935
1762168234.2248356,48.0,-19.0,-999.0,0,0,0,13.161027908325195,2.408566474914551,7.439433336257935
1762168234.3255115,31.0,-5.0,-1001.0,0,0,0,13.161027908325195,2.408566474914551,7.439433336257935
1762168234.4259446,41.0,7.0,-1003.0,0,0,0,13.161027908325195,2.408566474914551,7.439433336257935
1762168234.5262055,39.0,8.0,-983.0,0,0,0,13.161027908325195,2.408566474914551,7.439433336257935
1762168234.626795,41.0,-10.0,-971.0,0,0,0,13.161027908325195,2.408566474914551,7.439433336257935
1762168234.7277398,46.0,-19.0,-1017.0,0,0,0,13.161027908325195,2.408566474914551,7.439433336257935
1762168234.8280518,37.0,9.0,-994.0,0,0,0,13.161027908325195,2.408566474914551,7.439433336257935
1762168234.9283514,38.0,-6.0,-1012.0,0,0,0,13.161027908325195,2.408566474914551,7.439433336257935
1762168235.0291355,35.0,5.0,-998.0,0,0,0,13.161027908325195,2.408566474914551,7.439433336257935
1762168235.129773,40.0,7.0,-1001.0,0,0,0,13.161027908325195,2.408566474914551,7.439433336257935
1762168235.2306828,41.0,-20.0,-975.0,0,0,0,13.161027908325195,2.408566474914551,7.439433336257935
1762168235.3310192,54.0,-19.0,-998.0,0,0,0,13.161027908325195,2.408566474914551,7.439433336257935
1762168235.4313345,40.0,-28.0,-1005.0,0,0,0,13.161027908325195,2.408566474914551,7.439433336257935
1762168235.5319443,14.0,-27.0,-1003.0,0,0,0,13.161027908325195,2.408566474914551,7.439433336257935
1762168235.6323407,30.0,-28.0,-999.0,0,0,0,13.161027908325195,2.408566474914551,7.439433336257935
1762168235.732594,23.0,3.0,-980.0,0,0,0,13.161027908325195,2.408566474914551,7.439433336257935
1762168235.8333287,23.0,-23.0,-999.0,0,0,0,13.161027908325195,2.408566474914551,7.439433336257935
1762168235.9337115,19.0,0.0,-1015.0,0,0,0,13.161027908325195,2.408566474914551,7.439433336257935
1762168236.0341249,35.0,-15.0,-1034.0,0,0,0,13.161027908325195,2.408566474914551,7.439433336257935
1762168236.1343317,28.0,-11.0,-1010.0,0,0,0,13.161027908325195,2.408566474914551,7.439433336257935
1762168236.2351027,15.0,-21.0,-978.0,0,0,0,13.161027908325195,2.408566474914551,7.439433336257935
1762168236.3360908,16.0,9.0,-1021.0,0,0,0,13.161027908325195,2.408566474914551,7.439433336257935
1762168236.4368124,19.0,-12.0,-1010.0,0,0,0,13.161027908325195,2.408566474914551,7.439433336257935
1762168236.5375593,32.0,-5.0,-1000.0,0,0,0,13.161027908325195,2.408566474914551,7.439433336257935
1762168236.6377966,26.0,-7.0,-1006.0,0,0,0,13.161027908325195,2.408566474914551,7.439433336257935
1762168236.738201,3.0,2.0,-964.0,0,0,0,13.161027908325195,2.408566474914551,7.439433336257935
1762168236.8384624,-8.0,5.0,-917.0,0,0,-1,13.161027908325195,2.408566474914551,7.339171886444092
1762168236.9388342,8.0,-1.0,-904.0,0,0,-2,13.161027908325195,2.408566474914551,7.138428211212158
1762168237.0390964,-1.0,-3.0,-916.0,0,0,-2,13.161027908325195,2.408566474914551,6.937903881072998
1762168237.1394198,15.0,-5.0,-918.0,0,0,-3,13.161027908325195,2.408566474914551,6.6369335651397705
1762168237.2395844,18.0,-5.0,-966.0,0,0,-4,13.161027908325195,2.408566474914551,6.23627495765686
1762168237.3397849,18.0,-22.0,-967.0,0,0,-4,13.161027908325195,2.408566474914551,5.835473299026489
1762168237.4399595,29.0,-26.0,-994.0,0,0,-5,13.161027908325195,2.408566474914551,5.33459997177124
1762168237.5403566,17.0,6.0,-985.0,0,0,-5,13.161027908325195,2.408566474914551,4.832614421844482
1762168237.6407058,15.0,3.0,-1006.0,0,0,-5,13.161027908325195,2.408566474914551,4.330868482589722
1762168237.7412672,0.0,-1.0,-1005.0,0,0,-5,13.161027908325195,2.408566474914551,3.828061580657959
1762168237.841731,6.0,-3.0,-1017.0,0,0,-5,13.161027908325195,2.408566474914551,3.325742244720459
1762168237.9420972,46.0,9.0,-973.0,0,0,-5,13.161027908325195,2.408566474914551,2.823911666870117
1762168238.0427034,25.0,-25.0,-1010.0,0,0,-5,13.161027908325195,2.408566474914551,2.320880651473999
1762168238.1429758,40.0,32.0,-1025.0,0,0,-5,13.161027908325195,2.408566474914551,1.8195185661315918
1762168238.2437952,53.0,-6.0,-1014.0,0,0,-5,13.161027908325195,2.408566474914551,1.3154218196868896
1762168238.344238,-11.0,-3.0,-1137.0,0,0,-4,13.161027908325195,2.408566474914551,0.9136502742767334
1762168238.4446168,-142.0,199.0,-1507.0,0,0,-3,13.161027908325195,2.408566474914551,0.6125140190124512
1762168238.5447674,0.0,32.0,-968.0,0,0,0,13.161027908325195,2.408566474914551,0.6125140190124512
1762168238.6451428,9.0,21.0,-884.0,0,0,1,13.161027908325195,2.408566474914551,0.7128894329071045
1762168238.7453556,14.0,-16.0,-887.0,0,0,0,13.161027908325195,2.408566474914551,0.7128894329071045
1762168238.8457067,17.0,12.0,-931.0,0,0,0,13.161027908325195,2.408566474914551,0.7128894329071045
1762168238.946497,-12.0,60.0,-774.0,0,0,0,13.161027908325195,2.408566474914551,0.7128894329071045
1762168239.047213,20.0,-37.0,-1012.0,0,0,0,13.161027908325195,2.408566474914551,0.7128894329071045
1762168239.1474268,-7.0,30.0,-1119.0,0,0,0,13.161027908325195,2.408566474914551,0.7128894329071045
1762168239.247574,6.0,17.0,-993.0,0,0,0,13.161027908325195,2.408566474914551,0.7128894329071045
1762168239.347965,5.0,6.0,-1006.0,0,0,0,13.161027908325195,2.408566474914551,0.7128894329071045
1762168239.4483502,14.0,0.0,-1004.0,0,-1,0,13.161027908325195,2.3081812858581543,0.7128894329071045
1762168239.5489323,1.0,6.0,-1000.0,0,-1,0,13.161027908325195,2.20759916305542,0.7128894329071045
1762168239.6495914,9.0,0.0,-997.0,0,-1,0,13.161027908325195,2.1069400310516357,0.7128894329071045
1762168239.749928,6.0,2.0,-997.0,0,-1,0,13.161027908325195,2.006603479385376,0.7128894329071045
1762168239.8502743,-5.0,17.0,-998.0,0,-1,0,13.161027908325195,1.906257152557373,0.7128894329071045
1762168239.9509306,-6.0,16.0,-1005.0,0,-1,0,13.161027908325195,1.805600881576538,0.7128894329071045
1762168240.051235,6.0,-1.0,-1002.0,0,-1,0,13.161027908325195,1.705296516418457,0.7128894329071045
1762168240.1517107,-9.0,3.0,-1003.0,0,-1,0,13.161027908325195,1.604820728302002,0.7128894329071045
1762168240.2522304,5.0,4.0,-997.0,0,-1,1,13.161027908325195,1.5043010711669922,0.8134090900421143
1762168240.3525727,-10.0,7.0,-1005.0,0,-1,1,13.161027908325195,1.403958797454834,0.9137513637542725
1762168240.4531045,-2.0,11.0,-1000.0,0,0,1,13.161027908325195,1.403958797454834,1.0142831802368164
1762168240.553362,1.0,2.0,-1001.0,0,0,2,13.161027908325195,1.403958797454834,1.2147979736328125
1762168240.6536903,0.0,11.0,-1006.0,0,0,2,13.161027908325195,1.403958797454834,1.4154548645019531
1762168240.754208,-4.0,14.0,-1009.0,0,0,3,13.161027908325195,1.403958797454834,1.717008113861084
1762168240.8547728,-5.0,6.0,-1005.0,0,0,3,13.161027908325195,1.403958797454834,2.018702268600464
1762168240.9553607,-1.0,10.0,-1009.0,0,0,3,13.161027908325195,1.403958797454834,2.3204658031463623
1762168241.055567,-3.0,6.0,-1006.0,0,0,4,13.161027908325195,1.403958797454834,2.7212913036346436
1762168241.1561248,-4.0,9.0,-1006.0,0,0,4,13.161027908325195,1.403958797454834,3.1235225200653076
1762168241.256385,3.0,7.0,-1008.0,0,0,4,13.161027908325195,1.403958797454834,3.5245635509490967
1762168241.356991,1.0,5.0,-1008.0,0,0,4,13.161027908325195,1.403958797454834,3.926987409591675
1762168241.457938,1.0,6.0,-1009.0,0,0,4,13.161027908325195,1.403958797454834,4.330775022506714
1762168241.5581024,0.0,5.0,-1009.0,0,0,4,13.161027908325195,1.403958797454834,4.731432676315308
1762168241.6588216,3.0,5.0,-1006.0,0,0,5,13.161027908325195,1.403958797454834,5.2350287437438965
1762168241.759249,0.0,6.0,-1007.0,0,0,5,13.161027908325195,1.403958797454834,5.737165689468384
1762168241.8597534,2.0,6.0,-1009.0,0,0,5,13.161027908325195,1.403958797454834,6.23968768119812
1762168241.9604564,0.0,5.0,-1009.0,0,0,5,13.161027908325195,1.403958797454834,6.7432026863098145
1762168242.0611234,3.0,5.0,-1009.0,0,0,5,13.161027908325195,1.403958797454834,7.246537685394287
1762168242.1613774,1.0,8.0,-1011.0,0,0,6,13.161027908325195,1.403958797454834,7.848062038421631
1762168242.2618532,1.0,5.0,-1009.0,0,0,6,13.161027908325195,1.403958797454834,8.450916767120361
1762168242.3620355,0.0,6.0,-1007.0,0,0,6,13.161027908325195,1.403958797454834,9.052010536193848
1762168242.462378,1.0,5.0,-1004.0,0,0,6,13.161027908325195,1.403958797454834,9.654065608978271
1762168242.562561,2.0,3.0,-1009.0,0,0,6,13.161027908325195,1.403958797454834,10.255163669586182
1762168242.663066,-2.0,6.0,-1008.0,0,0,6,13.161027908325195,1.403958797454834,10.858192920684814
1762168242.763684,3.0,7.0,-1007.0,0,0,6,13.161027908325195,1.403958797454834,11.461901664733887
1762168242.8642602,4.0,6.0,-1013.0,0,0,6,13.161027908325195,1.403958797454834,12.065358638763428
1762168242.965133,0.0,12.0,-1004.0,0,0,6,13.161027908325195,1.403958797454834,12.670595169067383
1762168243.0658357,0.0,8.0,-1006.0,0,0,6,13.161027908325195,1.403958797454834,13.274811744689941
1762168243.1663842,1.0,8.0,-1010.0,0,0,6,13.161027908325195,1.403958797454834,13.878102779388428
1762168243.2669046,1.0,4.0,-1006.0,0,0,6,13.161027908325195,1.403958797454834,14.48122501373291
1762168243.3672736,3.0,7.0,-1008.0,0,0,6,13.161027908325195,1.403958797454834,15.083438873291016
1762168243.467889,1.0,6.0,-1006.0,0,0,6,13.161027908325195,1.403958797454834,15.687131881713867
1762168243.5681667,-1.0,2.0,-1006.0,0,0,6,13.161027908325195,1.403958797454834,16.288797855377197
1762168243.668927,1.0,3.0,-1008.0,0,0,5,13.161027908325195,1.403958797454834,16.792598962783813
1762168243.7695975,-2.0,10.0,-1004.0,0,0,5,13.161027908325195,1.403958797454834,17.29595184326172
1762168243.870159,0.0,9.0,-1004.0,0,0,5,13.161027908325195,1.403958797454834,17.79875874519348
1762168243.9703417,2.0,3.0,-1001.0,0,0,5,13.161027908325195,1.403958797454834,18.299672603607178
1762168244.0704935,0.0,6.0,-1005.0,0,0,5,13.161027908325195,1.403958797454834,18.800431489944458
1762168244.1712573,0.0,5.0,-1006.0,0,0,5,13.161027908325195,1.403958797454834,19.304250478744507
1762168244.2719028,-1.0,3.0,-1006.0,0,0,5,13.161027908325195,1.403958797454834,19.807478189468384
1762168244.3726168,1.0,10.0,-1004.0,0,0,5,13.161027908325195,1.403958797454834,20.31104803085327
1762168244.4733243,2.0,3.0,-1004.0,0,0,4,13.161027908325195,1.403958797454834,20.71387815475464
1762168244.5739355,0.0,6.0,-1002.0,0,0,4,13.161027908325195,1.403958797454834,21.116322994232178
1762168244.6743793,1.0,4.0,-1002.0,0,0,4,13.161027908325195,1.403958797454834,21.5180983543396
1762168244.7745845,-1.0,14.0,-1005.0,0,0,4,13.161027908325195,1.403958797454834,21.9189190864563
1762168244.87494,0.0,5.0,-1004.0,0,0,4,13.161027908325195,1.403958797454834,22.320340633392334
1762168244.9753058,0.0,8.0,-1003.0,0,0,4,13.161027908325195,1.403958797454834,22.72180414199829
1762168245.0759532,0.0,0.0,-1002.0,0,0,4,13.161027908325195,1.403958797454834,23.124393939971924
1762168245.1765492,-3.0,8.0,-1004.0,0,0,3,13.161027908325195,1.403958797454834,23.42618179321289
1762168245.2770047,2.0,6.0,-999.0,0,0,3,13.161027908325195,1.403958797454834,23.727548360824585
1762168245.3774261,0.0,10.0,-1002.0,0,0,3,13.161027908325195,1.403958797454834,24.028812646865845
1762168245.4779525,2.0,4.0,-1001.0,0,0,3,13.161027908325195,1.403958797454834,24.33039164543152
1762168245.5788522,0.0,0.0,-1000.0,0,0,3,13.161027908325195,1.403958797454834,24.63309073448181
1762168245.6792803,0.0,13.0,-1001.0,0,0,3,13.161027908325195,1.403958797454834,24.934375047683716
1762168245.7796812,2.0,2.0,-1002.0,0,0,3,13.161027908325195,1.403958797454834,25.235577821731567
1762168245.8802078,0.0,7.0,-1003.0,0,0,3,13.161027908325195,1.403958797454834,25.53715753555298
1762168245.9807017,1.0,13.0,-1001.0,0,0,3,13.161027908325195,1.403958797454834,25.83863925933838
1762168246.08134,3.0,-1.0,-1003.0,0,0,3,13.161027908325195,1.403958797454834,26.140554428100586
1762168246.1817024,-1.0,8.0,-1003.0,0,0,3,13.161027908325195,1.403958797454834,26.441641330718994
1762168246.2819943,0.0,5.0,-1000.0,0,0,3,13.161027908325195,1.403958797454834,26.742517232894897
1762168246.3826911,3.0,3.0,-1000.0,0,0,3,13.161027908325195,1.403958797454834,27.044607639312744
1762168246.48288,0.0,6.0,-1002.0,0,0,3,13.161027908325195,1.403958797454834,27.345174551010132
1762168246.5836413,1.0,6.0,-998.0,0,0,3,13.161027908325195,1.403958797454834,27.64745807647705
1762168246.6840346,1.0,6.0,-999.0,0,0,3,13.161027908325195,1.403958797454834,27.94863796234131
1762168246.7842798,2.0,2.0,-999.0,0,0,3,13.161027908325195,1.403958797454834,28.2493736743927
1762168246.8847046,-1.0,7.0,-1000.0,0,0,2,13.161027908325195,1.403958797454834,28.450223207473755
1762168246.9850333,0.0,4.0,-1000.0,0,0,2,13.161027908325195,1.403958797454834,28.650880575180054
1762168247.0852573,0.0,4.0,-1000.0,0,0,2,13.161027908325195,1.403958797454834,28.8513286113739
1762168247.1855528,-2.0,7.0,-999.0,0,0,2,13.161027908325195,1.403958797454834,29.05191969871521
1762168247.2863634,3.0,8.0,-998.0,0,0,2,13.161027908325195,1.403958797454834,29.253540754318237
1762168247.3871555,0.0,6.0,-998.0,0,0,2,13.161027908325195,1.403958797454834,29.455125093460083
1762168247.4873488,2.0,6.0,-999.0,0,0,2,13.161027908325195,1.403958797454834,29.655511617660522
1762168247.5879145,1.0,6.0,-998.0,0,0,2,13.161027908325195,1.403958797454834,29.856642961502075
1762168247.6881793,0.0,3.0,-998.0,0,0,2,13.161027908325195,1.403958797454834,30.057172536849976
1762168247.788504,2.0,6.0,-999.0,0,0,2,13.161027908325195,1.403958797454834,30.257821798324585
1762168247.8892953,-1.0,5.0,-996.0,0,0,2,13.161027908325195,1.403958797454834,30.459404706954956
1762168247.9901636,0.0,7.0,-1000.0,0,0,2,13.161027908325195,1.403958797454834,30.66114115715027
1762168248.0904946,1.0,4.0,-1000.0,0,0,1,13.161027908325195,1.403958797454834,30.76147222518921
1762168248.1908123,1.0,5.0,-997.0,0,0,1,13.161027908325195,1.403958797454834,30.86178994178772
1762168248.291147,1.0,5.0,-995.0,0,0,0,13.161027908325195,1.403958797454834,30.86178994178772
1762168248.3918147,0.0,6.0,-1003.0,0,0,0,13.161027908325195,1.403958797454834,30.86178994178772
1762168248.4925916,0.0,9.0,-998.0,0,0,0,13.161027908325195,1.403958797454834,30.86178994178772
1762168248.5930545,-2.0,7.0,-1003.0,0,0,0,13.161027908325195,1.403958797454834,30.86178994178772
1762168248.693321,-3.0,12.0,-999.0,0,0,0,13.161027908325195,1.403958797454834,30.86178994178772
1762168248.7935016,3.0,4.0,-996.0,0,0,0,13.161027908325195,1.403958797454834,30.86178994178772
1762168248.8936315,1.0,6.0,-996.0,0,0,0,13.161027908325195,1.403958797454834,30.86178994178772
1762168248.9941535,1.0,5.0,-995.0,0,0,0,13.161027908325195,1.403958797454834,30.86178994178772
1762168249.0950353,1.0,6.0,-996.0,0,0,0,13.161027908325195,1.403958797454834,30.86178994178772
1762168249.1956785,0.0,5.0,-999.0,0,0,0,13.161027908325195,1.403958797454834,30.86178994178772
1762168249.2960036,0.0,5.0,-996.0,0,0,0,13.161027908325195,1.403958797454834,30.86178994178772
1762168249.3962564,0.0,6.0,-996.0,0,0,0,13.161027908325195,1.403958797454834,30.86178994178772
1762168249.4965916,1.0,6.0,-998.0,0,0,0,13.161027908325195,1.403958797454834,30.86178994178772
1762168249.597179,2.0,7.0,-997.0,0,0,0,13.161027908325195,1.403958797454834,30.86178994178772
1762168249.6979115,0.0,6.0,-998.0,0,0,0,13.161027908325195,1.403958797454834,30.86178994178772
1762168249.7988088,1.0,5.0,-999.0,0,0,0,13.161027908325195,1.403958797454834,30.86178994178772
1762168249.8990815,0.0,5.0,-996.0,0,0,0,13.161027908325195,1.403958797454834,30.86178994178772
1762168249.9993744,0.0,5.0,-999.0,0,0,0,13.161027908325195,1.403958797454834,30.86178994178772
1762168250.099641,3.0,5.0,-996.0,0,0,0,13.161027908325195,1.403958797454834,30.86178994178772
1762168250.2001882,1.0,5.0,-997.0,0,0,0,13.161027908325195,1.403958797454834,30.86178994178772
