Time,Ax,Ay,Az,Sx,Sy,Sz,x,y,z
1762166264.3513658,-2.0,-2.0,-998.0,0,0,0,0.0,0.0,0.0
1762166264.4666867,0.0,-3.0,-1000.0,0,0,0,0.0,0.0,0.0
1762166264.5803702,-1.0,-2.0,-1000.0,0,0,0,0.0,0.0,0.0
1762166264.69245,0.0,-3.0,-997.0,0,0,0,0.0,0.0,0.0
1762166264.797271,0.0,-2.0,-998.0,0,0,0,0.0,0.0,0.0
1762166264.9032617,-1.0,-3.0,-999.0,0,0,0,0.0,0.0,0.0
1762166265.016566,-1.0,-3.0,-999.0,0,0,0,0.0,0.0,0.0
1762166265.1175232,0.0,-3.0,-1000.0,0,0,0,0.0,0.0,0.0
1762166265.2179027,-1.0,-3.0,-997.0,0,0,0,0.0,0.0,0.0
1762166265.3182878,-1.0,-3.0,-1000.0,0,0,0,0.0,0.0,0.0
1762166265.4326813,0.0,-3.0,-1000.0,0,0,0,0.0,0.0,0.0
1762166265.5339744,0.0,-3.0,-998.0,0,0,0,0.0,0.0,0.0
1762166265.634798,-1.0,-3.0,-1001.0,0,0,0,0.0,0.0,0.0
1762166265.7493517,0.0,-3.0,-999.0,0,0,0,0.0,0.0,0.0
1762166265.865633,0.0,-3.0,-1000.0,0,0,0,0.0,0.0,0.0
1762166265.9783118,-1.0,-3.0,-998.0,0,0,0,0.0,0.0,0.0
1762166266.0911195,-1.0,-3.0,-1000.0,0,0,0,0.0,0.0,0.0
1762166266.2037857,-2.0,-2.0,-997.0,0,0,0,0.0,0.0,0.0
1762166266.316377,-2.0,-5.0,-1000.0,0,0,0,0.0,0.0,0.0
1762166266.4185216,-1.0,-1.0,-1000.0,0,0,0,0.0,0.0,0.0
1762166266.521925,0.0,-3.0,-1003.0,0,0,0,0.0,0.0,0.0
1762166266.631044,-2.0,0.0,-1000.0,0,0,0,0.0,0.0,0.0
1762166266.7441332,-4.0,-9.0,-998.0,0,0,0,0.0,0.0,0.0
1762166266.8498404,-1.0,-7.0,-1004.0,0,0,0,0.0,0.0,0.0
1762166266.9515638,4.0,2.0,-997.0,0,0,0,0.0,0.0,0.0
1762166267.0668392,3.0,-6.0,-997.0,0,0,0,0.0,0.0,0.0
1762166267.168218,11.0,-6.0,-1015.0,0,0,0,0.0,0.0,0.0
1762166267.2834468,-6.0,-20.0,-1093.0,0,0,0,0.0,0.0,0.0
1762166267.3992522,-16.0,-18.0,-1138.0,0,0,1,0.0,0.0,0.11580538749694824
1762166267.5005214,-24.0,27.0,-1173.0,0,0,2,0.0,0.0,0.3183438777923584
1762166267.601568,-13.0,-3.0,-1122.0,0,-1,3,0.0,-0.10104656219482422,0.621483564376831
1762166267.7054691,-15.0,-31.0,-1069.0,0,-1,4,0.0,-0.20494771003723145,1.03708815574646
1762166267.8151987,5.0,-8.0,-1034.0,0,0,5,0.0,-0.20494771003723145,1.58573579788208
1762166267.9157743,-20.0,-7.0,-1038.0,0,0,5,0.0,-0.20494771003723145,2.0886142253875732
1762166268.027733,-1.0,-29.0,-1001.0,0,0,5,0.0,-0.20494771003723145,2.6484079360961914
1762166268.1402547,-5.0,-11.0,-984.0,0,0,5,0.0,-0.20494771003723145,3.2110161781311035
1762166268.253126,-8.0,-2.0,-973.0,0,0,5,0.0,-0.20494771003723145,3.77537202835083
1762166268.3652825,13.0,3.0,-975.0,0,0,5,0.0,-0.20494771003723145,4.33615517616272
1762166268.4811227,2.0,-1.0,-967.0,0,0,5,0.0,-0.20494771003723145,4.915356159210205
1762166268.594441,-11.0,-28.0,-953.0,0,0,4,0.0,-0.20494771003723145,5.368628978729248
1762166268.7074156,-6.0,-24.0,-926.0,0,0,3,0.0,-0.20494771003723145,5.707552909851074
1762166268.820001,0.0,-21.0,-905.0,0,0,3,0.0,-0.20494771003723145,6.045308828353882
1762166268.932398,-3.0,-6.0,-923.0,0,0,2,0.0,-0.20494771003723145,6.270103216171265
1762166269.0475788,2.0,5.0,-939.0,0,0,1,0.0,-0.20494771003723145,6.385283946990967
1762166269.1602871,-12.0,-4.0,-943.0,0,0,1,0.0,-0.20494771003723145,6.497992277145386
1762166269.2738686,-8.0,-25.0,-933.0,0,0,0,0.0,-0.20494771003723145,6.497992277145386
1762166269.3866043,-9.0,-15.0,-947.0,0,0,0,0.0,-0.20494771003723145,6.497992277145386
1762166269.499653,-7.0,-15.0,-981.0,0,0,0,0.0,-0.20494771003723145,6.497992277145386
1762166269.6123803,-2.0,-18.0,-977.0,0,0,0,0.0,-0.20494771003723145,6.497992277145386
1762166269.7249575,8.0,-15.0,-986.0,0,0,0,0.0,-0.20494771003723145,6.497992277145386
1762166269.837659,0.0,-16.0,-1005.0,0,0,0,0.0,-0.20494771003723145,6.497992277145386
1762166269.9504871,-6.0,-26.0,-1015.0,0,0,0,0.0,-0.20494771003723145,6.497992277145386
1762166270.0665278,-1.0,-30.0,-1006.0,0,0,0,0.0,-0.20494771003723145,6.497992277145386
1762166270.1796498,-14.0,-25.0,-1011.0,0,0,0,0.0,-0.20494771003723145,6.497992277145386
1762166270.292291,9.0,-26.0,-1027.0,0,0,0,0.0,-0.20494771003723145,6.497992277145386
1762166270.4047158,-13.0,-20.0,-1013.0,0,0,0,0.0,-0.20494771003723145,6.497992277145386
1762166270.5170467,1.0,-24.0,-1010.0,0,0,0,0.0,-0.20494771003723145,6.497992277145386
1762166270.6303792,-6.0,-3.0,-996.0,0,0,0,0.0,-0.20494771003723145,6.497992277145386
1762166270.7423115,-2.0,-25.0,-1032.0,0,0,0,0.0,-0.20494771003723145,6.497992277145386
1762166270.8545675,-5.0,-10.0,-986.0,0,0,0,0.0,-0.20494771003723145,6.497992277145386
1762166270.9670782,-12.0,-23.0,-991.0,0,0,0,0.0,-0.20494771003723145,6.497992277145386
1762166271.0798974,-2.0,-21.0,-1031.0,0,0,0,0.0,-0.20494771003723145,6.497992277145386
1762166271.1804466,4.0,-10.0,-1004.0,0,0,0,0.0,-0.20494771003723145,6.497992277145386
1762166271.2843134,0.0,-9.0,-997.0,0,0,0,0.0,-0.20494771003723145,6.497992277145386
1762166271.399877,0.0,-19.0,-988.0,0,0,0,0.0,-0.20494771003723145,6.497992277145386
1762166271.5128496,-12.0,-20.0,-979.0,0,0,0,0.0,-0.20494771003723145,6.497992277145386
1762166271.617283,5.0,-14.0,-1001.0,0,0,0,0.0,-0.20494771003723145,6.497992277145386
1762166271.728835,0.0,-7.0,-986.0,0,0,0,0.0,-0.20494771003723145,6.497992277145386
1762166271.8337252,-5.0,3.0,-987.0,0,0,0,0.0,-0.20494771003723145,6.497992277145386
1762166271.93431,-5.0,-19.0,-1030.0,0,0,0,0.0,-0.20494771003723145,6.497992277145386
1762166272.035104,0.0,-5.0,-997.0,0,0,0,0.0,-0.20494771003723145,6.497992277145386
1762166272.150322,-2.0,0.0,-988.0,0,0,0,0.0,-0.20494771003723145,6.497992277145386
1762166272.251757,-10.0,-4.0,-997.0,0,0,0,0.0,-0.20494771003723145,6.497992277145386
1762166272.3670812,-7.0,-6.0,-996.0,0,0,0,0.0,-0.20494771003723145,6.497992277145386
1762166272.46825,3.0,-3.0,-981.0,0,0,0,0.0,-0.20494771003723145,6.497992277145386
1762166272.5826101,14.0,-9.0,-994.0,0,0,0,0.0,-0.20494771003723145,6.497992277145386
1762166272.698161,-10.0,-9.0,-1007.0,0,0,0,0.0,-0.20494771003723145,6.497992277145386
1762166272.8146286,-4.0,-11.0,-1014.0,0,0,0,0.0,-0.20494771003723145,6.497992277145386
1762166272.9273365,-13.0,-16.0,-970.0,0,0,0,0.0,-0.20494771003723145,6.497992277145386
1762166273.040175,-8.0,-16.0,-998.0,0,0,0,0.0,-0.20494771003723145,6.497992277145386
1762166273.1529188,-3.0,-4.0,-981.0,0,0,0,0.0,-0.20494771003723145,6.497992277145386
1762166273.2640834,3.0,0.0,-974.0,0,0,0,0.0,-0.20494771003723145,6.497992277145386
1762166273.3769026,-20.0,-9.0,-993.0,0,0,0,0.0,-0.20494771003723145,6.497992277145386
1762166273.489723,15.0,-15.0,-989.0,0,0,0,0.0,-0.20494771003723145,6.497992277145386
1762166273.6013246,13.0,-10.0,-1001.0,0,0,0,0.0,-0.20494771003723145,6.497992277145386
1762166273.714102,-5.0,-37.0,-1002.0,0,0,0,0.0,-0.20494771003723145,6.497992277145386
1762166273.8157468,-5.0,-37.0,-1002.0,0,0,0,0.0,-0.20494771003723145,6.497992277145386
1762166273.9287808,10.0,-22.0,-994.0,0,0,0,0.0,-0.20494771003723145,6.497992277145386
1762166274.042126,7.0,10.0,-1013.0,0,0,0,0.0,-0.20494771003723145,6.497992277145386
1762166274.154907,5.0,-14.0,-1008.0,0,0,0,0.0,-0.20494771003723145,6.497992277145386
1762166274.2675421,-1.0,-3.0,-992.0,0,0,0,0.0,-0.20494771003723145,6.497992277145386
1762166274.380221,4.0,10.0,-1002.0,0,0,0,0.0,-0.20494771003723145,6.497992277145386
1762166274.4938915,13.0,1.0,-984.0,0,0,0,0.0,-0.20494771003723145,6.497992277145386
1762166274.6062925,1.0,10.0,-992.0,0,0,0,0.0,-0.20494771003723145,6.497992277145386
1762166274.7193263,4.0,-1.0,-1012.0,0,0,0,0.0,-0.20494771003723145,6.497992277145386
1762166274.8329673,8.0,-10.0,-1017.0,0,0,0,0.0,-0.20494771003723145,6.497992277145386
1762166274.94578,11.0,-8.0,-1009.0,0,0,0,0.0,-0.20494771003723145,6.497992277145386
1762166275.0579834,-14.0,-6.0,-991.0,0,0,0,0.0,-0.20494771003723145,6.497992277145386
1762166275.1703353,1.0,-19.0,-997.0,0,0,0,0.0,-0.20494771003723145,6.497992277145386
1762166275.2824717,1.0,0.0,-996.0,0,0,0,0.0,-0.20494771003723145,6.497992277145386
1762166275.3847346,3.0,-18.0,-1010.0,0,0,0,0.0,-0.20494771003723145,6.497992277145386
1762166275.49707,-5.0,-27.0,-977.0,0,0,0,0.0,-0.20494771003723145,6.497992277145386
1762166275.6108434,13.0,10.0,-997.0,0,0,0,0.0,-0.20494771003723145,6.497992277145386
1762166275.7235959,-31.0,3.0,-1000.0,0,0,0,0.0,-0.20494771003723145,6.497992277145386
1762166275.831222,-20.0,14.0,-1004.0,0,0,0,0.0,-0.20494771003723145,6.497992277145386
1762166275.9474816,-14.0,-26.0,-1005.0,0,0,0,0.0,-0.20494771003723145,6.497992277145386
1762166276.060553,9.0,-18.0,-1014.0,0,0,0,0.0,-0.20494771003723145,6.497992277145386
1762166276.1745129,5.0,2.0,-1008.0,0,0,0,0.0,-0.20494771003723145,6.497992277145386
1762166276.283571,-1.0,0.0,-1006.0,0,0,0,0.0,-0.20494771003723145,6.497992277145386
1762166276.399811,2.0,4.0,-1019.0,0,0,0,0.0,-0.20494771003723145,6.497992277145386
1762166276.5127244,1.0,-7.0,-1007.0,0,0,0,0.0,-0.20494771003723145,6.497992277145386
1762166276.6254842,-4.0,2.0,-1002.0,0,0,0,0.0,-0.20494771003723145,6.497992277145386
1762166276.7387455,-9.0,-6.0,-1005.0,0,0,0,0.0,-0.20494771003723145,6.497992277145386
1762166276.8395612,-22.0,8.0,-988.0,0,0,0,0.0,-0.20494771003723145,6.497992277145386
1762166276.9400995,-7.0,-11.0,-975.0,0,0,0,0.0,-0.20494771003723145,6.497992277145386
1762166277.050611,18.0,-2.0,-1001.0,0,0,0,0.0,-0.20494771003723145,6.497992277145386
1762166277.1520689,-12.0,-7.0,-997.0,0,0,0,0.0,-0.20494771003723145,6.497992277145386
1762166277.266838,-9.0,8.0,-997.0,0,0,0,0.0,-0.20494771003723145,6.497992277145386
1762166277.36863,2.0,6.0,-1024.0,-1,0,0,-0.1017918586730957,-0.20494771003723145,6.497992277145386
1762166277.4843783,-3.0,-9.0,-1001.0,-1,0,0,-0.21754026412963867,-0.20494771003723145,6.497992277145386
1762166277.599897,-7.0,11.0,-1021.0,-1,0,0,-0.33305883407592773,-0.20494771003723145,6.497992277145386
1762166277.7111216,12.0,-46.0,-981.0,-1,0,0,-0.44428348541259766,-0.20494771003723145,6.497992277145386
1762166277.8241265,-12.0,9.0,-998.0,-1,0,0,-0.557288408279419,-0.20494771003723145,6.497992277145386
1762166277.9373293,-1.0,-18.0,-986.0,-1,0,0,-0.6704912185668945,-0.20494771003723145,6.497992277145386
1762166278.0479603,14.0,10.0,-1003.0,0,0,0,-0.6704912185668945,-0.20494771003723145,6.497992277145386
1762166278.1610334,-19.0,-9.0,-1002.0,-1,0,0,-0.7835643291473389,-0.20494771003723145,6.497992277145386
1762166278.2742913,-5.0,-21.0,-984.0,-1,0,0,-0.8968222141265869,-0.20494771003723145,6.497992277145386
1762166278.3870149,-2.0,-16.0,-980.0,-1,0,0,-1.0095458030700684,-0.20494771003723145,6.497992277145386
1762166278.4989376,4.0,-18.0,-1001.0,-1,0,0,-1.1214685440063477,-0.20494771003723145,6.497992277145386
1762166278.6135108,-12.0,-21.0,-958.0,-1,0,0,-1.236041784286499,-0.20494771003723145,6.497992277145386
1762166278.724789,-15.0,-14.0,-1030.0,-1,0,0,-1.3473198413848877,-0.20494771003723145,6.497992277145386
1762166278.834628,-13.0,17.0,-1001.0,-1,0,0,-1.4571590423583984,-0.20494771003723145,6.497992277145386
1762166278.945062,-20.0,0.0,-995.0,-1,0,0,-1.5675928592681885,-0.20494771003723145,6.497992277145386
1762166279.0498836,-12.0,-12.0,-991.0,-1,0,0,-1.6724145412445068,-0.20494771003723145,6.497992277145386
1762166279.1627088,0.0,25.0,-978.0,-1,0,0,-1.7852396965026855,-0.20494771003723145,6.497992277145386
1762166279.2759137,-5.0,2.0,-988.0,-1,0,0,-1.898444652557373,-0.20494771003723145,6.497992277145386
1762166279.389104,-6.0,-41.0,-1003.0,-1,0,0,-2.0116348266601562,-0.20494771003723145,6.497992277145386
1762166279.5020914,-19.0,10.0,-1032.0,0,0,0,-2.0116348266601562,-0.20494771003723145,6.497992277145386
1762166279.6140091,-3.0,-3.0,-1019.0,0,0,0,-2.0116348266601562,-0.20494771003723145,6.497992277145386
1762166279.7255142,0.0,-21.0,-1024.0,-1,0,0,-2.1231398582458496,-0.20494771003723145,6.497992277145386
1762166279.838822,0.0,-18.0,-998.0,-1,0,0,-2.23644757270813,-0.20494771003723145,6.497992277145386
1762166279.9515226,3.0,-2.0,-1001.0,-1,0,0,-2.3491482734680176,-0.20494771003723145,6.497992277145386
1762166280.0631626,-16.0,8.0,-1006.0,-1,0,0,-2.4607882499694824,-0.20494771003723145,6.497992277145386
1762166280.1638203,-4.0,-7.0,-989.0,-1,0,0,-2.561445951461792,-0.20494771003723145,6.497992277145386
1762166280.2771368,-21.0,-33.0,-971.0,0,0,0,-2.561445951461792,-0.20494771003723145,6.497992277145386
1762166280.390628,-8.0,-9.0,-991.0,0,0,0,-2.561445951461792,-0.20494771003723145,6.497992277145386
1762166280.5028915,-10.0,-9.0,-994.0,0,0,0,-2.561445951461792,-0.20494771003723145,6.497992277145386
1762166280.6154227,-9.0,-38.0,-1006.0,0,0,0,-2.561445951461792,-0.20494771003723145,6.497992277145386
1762166280.7291691,0.0,-18.0,-990.0,0,0,0,-2.561445951461792,-0.20494771003723145,6.497992277145386
1762166280.8412354,-16.0,-40.0,-984.0,0,-1,0,-2.561445951461792,-0.3170139789581299,6.497992277145386
1762166280.9536524,-1.0,-8.0,-1022.0,0,0,0,-2.561445951461792,-0.3170139789581299,6.497992277145386
1762166281.066316,12.0,-5.0,-1005.0,0,0,0,-2.561445951461792,-0.3170139789581299,6.497992277145386
1762166281.1822257,1.0,15.0,-1020.0,0,0,0,-2.561445951461792,-0.3170139789581299,6.497992277145386
1762166281.295482,-4.0,-4.0,-1008.0,0,-1,0,-2.561445951461792,-0.4302701950073242,6.497992277145386
1762166281.407539,-35.0,-42.0,-1025.0,0,-1,0,-2.561445951461792,-0.5423271656036377,6.497992277145386
1762166281.5202382,-11.0,-33.0,-1004.0,0,-1,0,-2.561445951461792,-0.6550264358520508,6.497992277145386
1762166281.633188,0.0,-17.0,-1006.0,0,-1,0,-2.561445951461792,-0.7679762840270996,6.497992277145386
1762166281.747974,-7.0,-23.0,-1001.0,0,-1,0,-2.561445951461792,-0.8827621936798096,6.497992277145386
1762166281.8608973,6.0,-1.0,-1005.0,0,-1,0,-2.561445951461792,-0.9956855773925781,6.497992277145386
1762166281.973425,-9.0,0.0,-996.0,0,-1,0,-2.561445951461792,-1.108213186264038,6.497992277145386
1762166282.0841928,-20.0,-49.0,-1013.0,0,-1,0,-2.561445951461792,-1.2189810276031494,6.497992277145386
1762166282.1948502,-10.0,2.0,-1025.0,0,-1,0,-2.561445951461792,-1.3296384811401367,6.497992277145386
1762166282.2963555,-2.0,-24.0,-1014.0,0,-1,0,-2.561445951461792,-1.4311437606811523,6.497992277145386
1762166282.4074054,-1.0,-3.0,-996.0,0,-1,0,-2.561445951461792,-1.5421936511993408,6.497992277145386
1762166282.5179534,-1.0,-20.0,-1014.0,0,-1,0,-2.561445951461792,-1.6527416706085205,6.497992277145386
1762166282.6291249,-18.0,-9.0,-1003.0,0,-1,0,-2.561445951461792,-1.7639131546020508,6.497992277145386
1762166282.7427654,-18.0,-17.0,-999.0,0,-1,0,-2.561445951461792,-1.8775537014007568,6.497992277145386
1762166282.8456926,-7.0,-3.0,-997.0,0,-1,0,-2.561445951461792,-1.9804809093475342,6.497992277145386
1762166282.9567082,2.0,-3.0,-1010.0,0,-1,0,-2.561445951461792,-2.091496467590332,6.497992277145386
1762166283.067744,0.0,1.0,-992.0,0,-1,0,-2.561445951461792,-2.2025322914123535,6.497992277145386
1762166283.1808014,17.0,18.0,-1002.0,0,-1,0,-2.561445951461792,-2.315589666366577,6.497992277145386
1762166283.2830029,1.0,-13.0,-975.0,0,-1,0,-2.561445951461792,-2.4177911281585693,6.497992277145386
1762166283.3953552,-15.0,-12.0,-1003.0,0,-1,0,-2.561445951461792,-2.5301434993743896,6.497992277145386
1762166283.5081263,-2.0,-13.0,-1021.0,0,-1,0,-2.561445951461792,-2.6429145336151123,6.497992277145386
1762166283.6207483,-4.0,5.0,-975.0,0,-1,0,-2.561445951461792,-2.7555365562438965,6.497992277145386
1762166283.7339106,-12.0,-4.0,-1021.0,0,-1,0,-2.561445951461792,-2.868698835372925,6.497992277145386
1762166283.8504896,3.0,-6.0,-1016.0,0,-1,0,-2.561445951461792,-2.9852778911590576,6.497992277145386
1762166283.9631188,12.0,12.0,-1010.0,0,-1,0,-2.561445951461792,-3.097907066345215,6.497992277145386
1762166284.074902,0.0,-9.0,-1021.0,0,-1,0,-2.561445951461792,-3.2096903324127197,6.497992277145386
1762166284.1869097,0.0,4.0,-1031.0,0,-1,0,-2.561445951461792,-3.321697950363159,6.497992277145386
1762166284.299236,6.0,-14.0,-957.0,0,-1,0,-2.561445951461792,-3.4340243339538574,6.497992277145386
1762166284.414613,3.0,-21.0,-982.0,0,-1,0,-2.561445951461792,-3.54940128326416,6.497992277145386
1762166284.5284295,13.0,-22.0,-996.0,0,-1,0,-2.561445951461792,-3.663217782974243,6.497992277145386
1762166284.6419168,-32.0,-9.0,-981.0,0,0,0,-2.561445951461792,-3.663217782974243,6.497992277145386
1762166284.7548459,17.0,-21.0,-980.0,0,0,0,-2.561445951461792,-3.663217782974243,6.497992277145386
1762166284.8607802,-15.0,-4.0,-988.0,0,0,0,-2.561445951461792,-3.663217782974243,6.497992277145386
1762166284.9642637,-9.0,-13.0,-997.0,0,0,0,-2.561445951461792,-3.663217782974243,6.497992277145386
1762166285.076915,10.0,-28.0,-989.0,0,0,0,-2.561445951461792,-3.663217782974243,6.497992277145386
1762166285.1883907,-8.0,-11.0,-978.0,0,0,0,-2.561445951461792,-3.663217782974243,6.497992277145386
1762166285.3008356,6.0,-3.0,-1021.0,0,0,0,-2.561445951461792,-3.663217782974243,6.497992277145386
1762166285.4153833,0.0,-12.0,-1002.0,0,0,0,-2.561445951461792,-3.663217782974243,6.497992277145386
1762166285.530006,14.0,-18.0,-1017.0,0,0,0,-2.561445951461792,-3.663217782974243,6.497992277145386
1762166285.6429448,-13.0,-17.0,-1025.0,0,0,0,-2.561445951461792,-3.663217782974243,6.497992277145386
1762166285.754286,16.0,-10.0,-997.0,0,0,0,-2.561445951461792,-3.663217782974243,6.497992277145386
1762166285.8653471,5.0,-29.0,-1028.0,0,0,0,-2.561445951461792,-3.663217782974243,6.497992277145386
1762166285.9815419,-4.0,-14.0,-1000.0,0,0,0,-2.561445951461792,-3.663217782974243,6.497992277145386
1762166286.094778,1.0,-33.0,-1008.0,0,0,0,-2.561445951461792,-3.663217782974243,6.497992277145386
1762166286.207492,-15.0,-10.0,-961.0,0,0,0,-2.561445951461792,-3.663217782974243,6.497992277145386
1762166286.3200097,5.0,-23.0,-986.0,0,0,0,-2.561445951461792,-3.663217782974243,6.497992277145386
1762166286.4321294,3.0,-20.0,-992.0,0,0,0,-2.561445951461792,-3.663217782974243,6.497992277145386
1762166286.5333211,-6.0,-29.0,-964.0,0,0,0,-2.561445951461792,-3.663217782974243,6.497992277145386
1762166286.6463733,-1.0,-34.0,-1000.0,0,0,0,-2.561445951461792,-3.663217782974243,6.497992277145386
1762166286.759088,5.0,1.0,-994.0,0,0,0,-2.561445951461792,-3.663217782974243,6.497992277145386
1762166286.8720393,-10.0,-32.0,-1010.0,0,0,0,-2.561445951461792,-3.663217782974243,6.497992277145386
1762166286.9834936,-10.0,9.0,-1005.0,0,0,0,-2.561445951461792,-3.663217782974243,6.497992277145386
1762166287.096375,-3.0,-6.0,-1016.0,0,-1,0,-2.561445951461792,-3.77609920501709,6.497992277145386
1762166287.2089226,-25.0,-28.0,-1025.0,0,-1,0,-2.561445951461792,-3.8886468410491943,6.497992277145386
1762166287.3211226,-9.0,-20.0,-1009.0,0,-1,0,-2.561445951461792,-4.000846862792969,6.497992277145386
1762166287.43385,12.0,-9.0,-1013.0,0,0,0,-2.561445951461792,-4.000846862792969,6.497992277145386
1762166287.5495296,-1.0,-6.0,-1002.0,0,0,0,-2.561445951461792,-4.000846862792969,6.497992277145386
1762166287.662529,-19.0,-10.0,-995.0,0,0,0,-2.561445951461792,-4.000846862792969,6.497992277145386
1762166287.7745757,-16.0,-28.0,-999.0,0,0,0,-2.561445951461792,-4.000846862792969,6.497992277145386
1762166287.887287,-6.0,-6.0,-997.0,0,0,0,-2.561445951461792,-4.000846862792969,6.497992277145386
1762166287.999769,-4.0,-9.0,-967.0,0,0,0,-2.561445951461792,-4.000846862792969,6.497992277145386
1762166288.1156366,-6.0,-10.0,-1000.0,0,0,0,-2.561445951461792,-4.000846862792969,6.497992277145386
1762166288.2269619,0.0,-17.0,-1005.0,0,0,0,-2.561445951461792,-4.000846862792969,6.497992277145386
1762166288.3376627,4.0,0.0,-972.0,0,-1,0,-2.561445951461792,-4.1115477085113525,6.497992277145386
1762166288.449324,1.0,1.0,-1025.0,0,-1,0,-2.561445951461792,-4.223208904266357,6.497992277145386
1762166288.560086,-3.0,3.0,-988.0,0,-1,0,-2.561445951461792,-4.33397102355957,6.497992277145386
1762166288.6615698,26.0,-11.0,-988.0,1,-1,0,-2.4599621295928955,-4.435454845428467,6.497992277145386
1762166288.7732124,-7.0,-9.0,-1031.0,1,0,0,-2.3483195304870605,-4.435454845428467,6.497992277145386
1762166288.8844786,43.0,13.0,-1015.0,0,0,0,-2.3483195304870605,-4.435454845428467,6.497992277145386
1762166288.9949837,38.0,16.0,-1040.0,0,0,0,-2.3483195304870605,-4.435454845428467,6.497992277145386
1762166289.1009507,5.0,4.0,-1023.0,0,-1,0,-2.3483195304870605,-4.541421890258789,6.497992277145386
1762166289.2114906,-5.0,22.0,-1038.0,0,-1,0,-2.3483195304870605,-4.651961803436279,6.497992277145386
1762166289.322646,-2.0,38.0,-1041.0,0,-1,0,-2.3483195304870605,-4.763117074966431,6.497992277145386
1762166289.4340518,-1.0,33.0,-980.0,0,-1,0,-2.3483195304870605,-4.874522924423218,6.497992277145386
1762166289.5458152,32.0,-1.0,-1001.0,0,-1,0,-2.3483195304870605,-4.986286401748657,6.497992277145386
1762166289.6497009,3.0,-37.0,-1009.0,0,0,0,-2.3483195304870605,-4.986286401748657,6.497992277145386
1762166289.76102,1.0,-16.0,-955.0,1,0,0,-2.2370004653930664,-4.986286401748657,6.497992277145386
1762166289.8721912,-14.0,9.0,-975.0,1,0,0,-2.1258292198181152,-4.986286401748657,6.497992277145386
1762166289.9836934,-2.0,0.0,-973.0,1,-1,0,-2.014327049255371,-5.097788572311401,6.497992277145386
1762166290.0950527,3.0,6.0,-991.0,1,0,0,-1.9029676914215088,-5.097788572311401,6.497992277145386
1762166290.1991193,12.0,-1.0,-985.0,1,0,0,-1.798901081085205,-5.097788572311401,6.497992277145386
1762166290.3100994,9.0,-12.0,-979.0,1,0,0,-1.6879210472106934,-5.097788572311401,6.497992277145386
1762166290.4214103,9.0,-8.0,-979.0,1,0,0,-1.5766100883483887,-5.097788572311401,6.497992277145386
1762166290.5325198,11.0,14.0,-1004.0,1,0,0,-1.4655005931854248,-5.097788572311401,6.497992277145386
1762166290.6438158,0.0,12.0,-1035.0,1,-1,0,-1.3542046546936035,-5.209084510803223,6.497992277145386
1762166290.7482796,16.0,6.0,-1025.0,1,0,0,-1.2497408390045166,-5.209084510803223,6.497992277145386
1762166290.8590336,-29.0,28.0,-1017.0,1,0,0,-1.1389868259429932,-5.209084510803223,6.497992277145386
1762166290.9701207,-1.0,13.0,-1038.0,1,0,0,-1.0278997421264648,-5.209084510803223,6.497992277145386
1762166291.0812137,-4.0,21.0,-1003.0,1,0,0,-0.916806697845459,-5.209084510803223,6.497992277145386
1762166291.1933782,-23.0,5.0,-1021.0,1,0,0,-0.8046422004699707,-5.209084510803223,6.497992277145386
1762166291.2963903,2.0,0.0,-1009.0,1,0,0,-0.7016301155090332,-5.209084510803223,6.497992277145386
1762166291.4079018,1.0,9.0,-981.0,0,0,0,-0.7016301155090332,-5.209084510803223,6.497992277145386
1762166291.519008,-5.0,3.0,-960.0,0,0,0,-0.7016301155090332,-5.209084510803223,6.497992277145386
1762166291.6308196,25.0,-30.0,-960.0,0,0,0,-0.7016301155090332,-5.209084510803223,6.497992277145386
1762166291.7445407,19.0,1.0,-970.0,0,0,0,-0.7016301155090332,-5.209084510803223,6.497992277145386
1762166291.8459005,-3.0,-26.0,-961.0,0,0,0,-0.7016301155090332,-5.209084510803223,6.497992277145386
1762166291.9575655,7.0,-21.0,-1029.0,0,0,0,-0.7016301155090332,-5.209084510803223,6.497992277145386
1762166292.0686948,15.0,5.0,-1014.0,0,0,0,-0.7016301155090332,-5.209084510803223,6.497992277145386
1762166292.179678,3.0,-10.0,-1021.0,0,0,0,-0.7016301155090332,-5.209084510803223,6.497992277145386
1762166292.2840931,14.0,3.0,-998.0,0,0,0,-0.7016301155090332,-5.209084510803223,6.497992277145386
1762166292.3963258,-2.0,-14.0,-1019.0,0,0,0,-0.7016301155090332,-5.209084510803223,6.497992277145386
1762166292.5080895,-13.0,27.0,-1020.0,0,0,0,-0.7016301155090332,-5.209084510803223,6.497992277145386
1762166292.618587,-9.0,-9.0,-982.0,0,0,0,-0.7016301155090332,-5.209084510803223,6.497992277145386
1762166292.729367,0.0,10.0,-992.0,0,0,0,-0.7016301155090332,-5.209084510803223,6.497992277145386
1762166292.83278,-8.0,-13.0,-1004.0,0,0,0,-0.7016301155090332,-5.209084510803223,6.497992277145386
1762166292.9443598,5.0,6.0,-1004.0,0,0,0,-0.7016301155090332,-5.209084510803223,6.497992277145386
1762166293.0560813,1.0,-6.0,-1008.0,0,0,0,-0.7016301155090332,-5.209084510803223,6.497992277145386
1762166293.1670663,-17.0,-2.0,-982.0,0,0,0,-0.7016301155090332,-5.209084510803223,6.497992277145386
1762166293.2787058,-4.0,8.0,-973.0,0,0,0,-0.7016301155090332,-5.209084510803223,6.497992277145386
1762166293.3835723,-20.0,3.0,-953.0,0,0,0,-0.7016301155090332,-5.209084510803223,6.497992277145386
1762166293.4950912,-21.0,20.0,-995.0,0,0,0,-0.7016301155090332,-5.209084510803223,6.497992277145386
1762166293.606554,-10.0,-5.0,-990.0,0,0,0,-0.7016301155090332,-5.209084510803223,6.497992277145386
1762166293.717584,-12.0,-7.0,-1000.0,0,0,0,-0.7016301155090332,-5.209084510803223,6.497992277145386
1762166293.8292217,-29.0,-4.0,-994.0,0,0,0,-0.7016301155090332,-5.209084510803223,6.497992277145386
1762166293.931707,-18.0,-19.0,-1016.0,0,0,0,-0.7016301155090332,-5.209084510803223,6.497992277145386
1762166294.042856,-16.0,-19.0,-1013.0,0,0,0,-0.7016301155090332,-5.209084510803223,6.497992277145386
1762166294.1558132,-8.0,17.0,-980.0,0,0,0,-0.7016301155090332,-5.209084510803223,6.497992277145386
1762166294.2672622,1.0,11.0,-1027.0,0,0,0,-0.7016301155090332,-5.209084510803223,6.497992277145386
1762166294.3787794,-20.0,-27.0,-1030.0,0,0,0,-0.7016301155090332,-5.209084510803223,6.497992277145386
1762166294.4798853,-6.0,20.0,-1011.0,0,0,0,-0.7016301155090332,-5.209084510803223,6.497992277145386
1762166294.590447,11.0,-2.0,-1005.0,0,0,0,-0.7016301155090332,-5.209084510803223,6.497992277145386
1762166294.700789,-6.0,-38.0,-998.0,0,0,0,-0.7016301155090332,-5.209084510803223,6.497992277145386
1762166294.8120637,-22.0,-48.0,-982.0,0,0,0,-0.7016301155090332,-5.209084510803223,6.497992277145386
1762166294.9250607,6.0,-14.0,-991.0,0,0,0,-0.7016301155090332,-5.209084510803223,6.497992277145386
1762166295.029678,-2.0,-9.0,-1015.0,0,0,0,-0.7016301155090332,-5.209084510803223,6.497992277145386
1762166295.140908,-6.0,-5.0,-1008.0,0,0,0,-0.7016301155090332,-5.209084510803223,6.497992277145386
1762166295.2515626,-14.0,21.0,-1031.0,0,0,0,-0.7016301155090332,-5.209084510803223,6.497992277145386
1762166295.3636172,0.0,-1.0,-984.0,0,0,0,-0.7016301155090332,-5.209084510803223,6.497992277145386
1762166295.4675333,-16.0,-35.0,-987.0,0,0,0,-0.7016301155090332,-5.209084510803223,6.497992277145386
1762166295.5797112,6.0,23.0,-1010.0,0,0,0,-0.7016301155090332,-5.209084510803223,6.497992277145386
1762166295.6904583,2.0,4.0,-1018.0,0,0,0,-0.7016301155090332,-5.209084510803223,6.497992277145386
1762166295.8011549,-20.0,-35.0,-966.0,0,0,0,-0.7016301155090332,-5.209084510803223,6.497992277145386
1762166295.9126265,-10.0,-28.0,-966.0,0,0,0,-0.7016301155090332,-5.209084510803223,6.497992277145386
1762166296.0156963,-11.0,-15.0,-980.0,0,0,0,-0.7016301155090332,-5.209084510803223,6.497992277145386
1762166296.1281776,-26.0,-30.0,-990.0,0,0,0,-0.7016301155090332,-5.209084510803223,6.497992277145386
1762166296.2394223,-10.0,4.0,-974.0,0,0,0,-0.7016301155090332,-5.209084510803223,6.497992277145386
1762166296.350809,-12.0,-8.0,-1007.0,0,0,0,-0.7016301155090332,-5.209084510803223,6.497992277145386
1762166296.4632869,12.0,-30.0,-1010.0,0,0,0,-0.7016301155090332,-5.209084510803223,6.497992277145386
1762166296.564645,2.0,9.0,-1004.0,0,0,0,-0.7016301155090332,-5.209084510803223,6.497992277145386
1762166296.676305,2.0,0.0,-1026.0,0,0,0,-0.7016301155090332,-5.209084510803223,6.497992277145386
1762166296.7869763,0.0,1.0,-1000.0,0,0,0,-0.7016301155090332,-5.209084510803223,6.497992277145386
1762166296.8980873,25.0,3.0,-1005.0,0,0,0,-0.7016301155090332,-5.209084510803223,6.497992277145386
1762166297.0106585,16.0,-5.0,-1008.0,0,0,0,-0.7016301155090332,-5.209084510803223,6.497992277145386
1762166297.11435,22.0,-5.0,-1004.0,0,0,0,-0.7016301155090332,-5.209084510803223,6.497992277145386
1762166297.2253225,-22.0,12.0,-964.0,0,0,0,-0.7016301155090332,-5.209084510803223,6.497992277145386
1762166297.3364673,11.0,1.0,-995.0,0,0,0,-0.7016301155090332,-5.209084510803223,6.497992277145386
1762166297.4468822,2.0,-9.0,-981.0,0,0,0,-0.7016301155090332,-5.209084510803223,6.497992277145386
1762166297.556602,0.0,12.0,-989.0,0,0,0,-0.7016301155090332,-5.209084510803223,6.497992277145386
1762166297.663699,-5.0,-2.0,-1005.0,0,0,0,-0.7016301155090332,-5.209084510803223,6.497992277145386
1762166297.7758281,0.0,13.0,-1006.0,0,0,0,-0.7016301155090332,-5.209084510803223,6.497992277145386
1762166297.886512,-11.0,-11.0,-1000.0,0,0,0,-0.7016301155090332,-5.209084510803223,6.497992277145386
1762166297.9978383,12.0,1.0,-1016.0,0,0,0,-0.7016301155090332,-5.209084510803223,6.497992277145386
1762166298.1122682,-8.0,-13.0,-1004.0,0,0,0,-0.7016301155090332,-5.209084510803223,6.497992277145386
1762166298.22866,4.0,3.0,-1003.0,0,0,0,-0.7016301155090332,-5.209084510803223,6.497992277145386
1762166298.3400824,-4.0,-1.0,-1019.0,0,0,0,-0.7016301155090332,-5.209084510803223,6.497992277145386
1762166298.451467,2.0,-16.0,-999.0,0,0,0,-0.7016301155090332,-5.209084510803223,6.497992277145386
1762166298.5625482,-17.0,-10.0,-985.0,0,0,0,-0.7016301155090332,-5.209084510803223,6.497992277145386
1762166298.6648138,0.0,0.0,-982.0,0,0,0,-0.7016301155090332,-5.209084510803223,6.497992277145386
1762166298.775421,0.0,0.0,-980.0,0,0,0,-0.7016301155090332,-5.209084510803223,6.497992277145386
1762166298.886468,-7.0,3.0,-984.0,0,0,0,-0.7016301155090332,-5.209084510803223,6.497992277145386
1762166298.9986901,-17.0,5.0,-994.0,0,0,0,-0.7016301155090332,-5.209084510803223,6.497992277145386
1762166299.110909,-8.0,-19.0,-981.0,0,0,0,-0.7016301155090332,-5.209084510803223,6.497992277145386
1762166299.214536,-8.0,14.0,-983.0,0,0,0,-0.7016301155090332,-5.209084510803223,6.497992277145386
1762166299.3254108,-10.0,-13.0,-1011.0,0,0,0,-0.7016301155090332,-5.209084510803223,6.497992277145386
1762166299.436511,-21.0,4.0,-1014.0,0,0,0,-0.7016301155090332,-5.209084510803223,6.497992277145386
1762166299.5472145,-17.0,-9.0,-992.0,0,0,0,-0.7016301155090332,-5.209084510803223,6.497992277145386
1762166299.6585393,-7.0,-12.0,-1019.0,0,0,0,-0.7016301155090332,-5.209084510803223,6.497992277145386
1762166299.7637033,-9.0,5.0,-1033.0,0,0,0,-0.7016301155090332,-5.209084510803223,6.497992277145386
1762166299.8747988,-19.0,-7.0,-1031.0,0,0,0,-0.7016301155090332,-5.209084510803223,6.497992277145386
1762166299.986151,-30.0,13.0,-991.0,0,0,0,-0.7016301155090332,-5.209084510803223,6.497992277145386
1762166300.097458,1.0,-9.0,-1009.0,0,0,0,-0.7016301155090332,-5.209084510803223,6.497992277145386
1762166300.2080476,-9.0,-12.0,-1018.0,0,0,0,-0.7016301155090332,-5.209084510803223,6.497992277145386
1762166300.3131104,-16.0,-6.0,-1005.0,0,0,0,-0.7016301155090332,-5.209084510803223,6.497992277145386
1762166300.423367,-12.0,10.0,-1003.0,0,0,0,-0.7016301155090332,-5.209084510803223,6.497992277145386
1762166300.5338137,4.0,-25.0,-997.0,0,0,0,-0.7016301155090332,-5.209084510803223,6.497992277145386
1762166300.6450746,-5.0,5.0,-1017.0,0,0,0,-0.7016301155090332,-5.209084510803223,6.497992277145386
1762166300.755406,-15.0,-23.0,-997.0,0,0,0,-0.7016301155090332,-5.209084510803223,6.497992277145386
1762166300.862609,-22.0,-2.0,-993.0,0,0,0,-0.7016301155090332,-5.209084510803223,6.497992277145386
1762166300.974139,-16.0,1.0,-1017.0,0,0,0,-0.7016301155090332,-5.209084510803223,6.497992277145386
1762166301.0848725,-7.0,-19.0,-1001.0,0,0,0,-0.7016301155090332,-5.209084510803223,6.497992277145386
1762166301.1964417,-17.0,5.0,-1005.0,0,0,0,-0.7016301155090332,-5.209084510803223,6.497992277145386
1762166301.302015,3.0,-30.0,-1006.0,0,0,0,-0.7016301155090332,-5.209084510803223,6.497992277145386
1762166301.4178185,5.0,13.0,-1009.0,0,0,0,-0.7016301155090332,-5.209084510803223,6.497992277145386
1762166301.5312066,15.0,-11.0,-985.0,0,0,0,-0.7016301155090332,-5.209084510803223,6.497992277145386
1762166301.6447396,-22.0,-10.0,-1023.0,0,0,0,-0.7016301155090332,-5.209084510803223,6.497992277145386
1762166301.746262,-14.0,-23.0,-1007.0,0,0,0,-0.7016301155090332,-5.209084510803223,6.497992277145386
1762166301.8508782,-30.0,-16.0,-1005.0,0,0,0,-0.7016301155090332,-5.209084510803223,6.497992277145386
1762166301.9522643,-13.0,-2.0,-994.0,0,0,0,-0.7016301155090332,-5.209084510803223,6.497992277145386
1762166302.0675702,-24.0,4.0,-1021.0,0,0,0,-0.7016301155090332,-5.209084510803223,6.497992277145386
1762166302.168987,-19.0,-6.0,-1005.0,0,0,0,-0.7016301155090332,-5.209084510803223,6.497992277145386
1762166302.2841525,-1.0,-22.0,-996.0,0,0,0,-0.7016301155090332,-5.209084510803223,6.497992277145386
1762166302.3855948,11.0,-9.0,-994.0,0,0,0,-0.7016301155090332,-5.209084510803223,6.497992277145386
1762166302.5008094,0.0,-1.0,-1001.0,0,0,0,-0.7016301155090332,-5.209084510803223,6.497992277145386
1762166302.616272,-3.0,-31.0,-975.0,0,0,0,-0.7016301155090332,-5.209084510803223,6.497992277145386
1762166302.7300303,-3.0,6.0,-1009.0,0,0,0,-0.7016301155090332,-5.209084510803223,6.497992277145386
1762166302.8434386,-15.0,15.0,-992.0,0,0,0,-0.7016301155090332,-5.209084510803223,6.497992277145386
1762166302.9489994,-24.0,14.0,-1031.0,0,0,0,-0.7016301155090332,-5.209084510803223,6.497992277145386
1762166303.0623384,5.0,5.0,-990.0,1,0,0,-0.5882911682128906,-5.209084510803223,6.497992277145386
1762166303.1754804,4.0,17.0,-999.0,1,0,0,-0.47514915466308594,-5.209084510803223,6.497992277145386
1762166303.2880049,1.0,-6.0,-1006.0,0,0,0,-0.47514915466308594,-5.209084510803223,6.497992277145386
1762166303.4007847,12.0,-21.0,-1018.0,0,0,0,-0.47514915466308594,-5.209084510803223,6.497992277145386
1762166303.5143433,-12.0,-3.0,-1015.0,1,0,0,-0.3615906238555908,-5.209084510803223,6.497992277145386
1762166303.62666,22.0,-11.0,-1002.0,1,0,0,-0.24927377700805664,-5.209084510803223,6.497992277145386
1762166303.7401223,3.0,18.0,-989.0,0,0,0,-0.24927377700805664,-5.209084510803223,6.497992277145386
1762166303.8531654,6.0,-19.0,-991.0,0,0,0,-0.24927377700805664,-5.209084510803223,6.497992277145386
1762166303.9668272,-10.0,7.0,-975.0,0,0,0,-0.24927377700805664,-5.209084510803223,6.497992277145386
1762166304.0799384,2.0,-15.0,-1011.0,1,0,0,-0.13616251945495605,-5.209084510803223,6.497992277145386
1762166304.1931317,7.0,9.0,-1025.0,1,0,0,-0.02296924591064453,-5.209084510803223,6.497992277145386
1762166304.3059683,-19.0,20.0,-983.0,0,0,0,-0.02296924591064453,-5.209084510803223,6.497992277145386
1762166304.4188719,-4.0,-21.0,-1005.0,0,0,0,-0.02296924591064453,-5.209084510803223,6.497992277145386
1762166304.532591,0.0,13.0,-1053.0,1,0,0,0.09074997901916504,-5.209084510803223,6.497992277145386
1762166304.6455874,8.0,-31.0,-995.0,1,0,0,0.20374631881713867,-5.209084510803223,6.497992277145386
1762166304.758595,0.0,-33.0,-987.0,0,0,0,0.20374631881713867,-5.209084510803223,6.497992277145386
1762166304.8715935,23.0,-2.0,-1007.0,0,0,0,0.20374631881713867,-5.209084510803223,6.497992277145386
1762166304.9831953,23.0,-2.0,-1007.0,0,0,0,0.20374631881713867,-5.209084510803223,6.497992277145386
1762166305.0996559,2.0,-16.0,-1023.0,0,0,0,0.20374631881713867,-5.209084510803223,6.497992277145386
1762166305.212045,0.0,-15.0,-1016.0,0,0,0,0.20374631881713867,-5.209084510803223,6.497992277145386
1762166305.324117,8.0,-29.0,-1010.0,1,0,0,0.31581830978393555,-5.209084510803223,6.497992277145386
1762166305.436181,16.0,-8.0,-1004.0,1,0,0,0.42788243293762207,-5.209084510803223,6.497992277145386
1762166305.5512652,-4.0,0.0,-984.0,1,0,0,0.5429666042327881,-5.209084510803223,6.497992277145386
1762166305.6641335,0.0,-1.0,-986.0,1,0,0,0.6558349132537842,-5.209084510803223,6.497992277145386
1762166305.7780833,-5.0,-24.0,-999.0,0,0,0,0.6558349132537842,-5.209084510803223,6.497992277145386
1762166305.8906574,6.0,-7.0,-1022.0,0,0,0,0.6558349132537842,-5.209084510803223,6.497992277145386
1762166306.0033307,0.0,22.0,-1017.0,0,0,0,0.6558349132537842,-5.209084510803223,6.497992277145386
1762166306.1154811,4.0,15.0,-990.0,0,0,0,0.6558349132537842,-5.209084510803223,6.497992277145386
1762166306.2279022,-10.0,-18.0,-1008.0,1,0,0,0.7682559490203857,-5.209084510803223,6.497992277145386
1762166306.3408792,13.0,-6.0,-983.0,0,0,0,0.7682559490203857,-5.209084510803223,6.497992277145386
1762166306.4542596,15.0,-14.0,-1007.0,0,0,0,0.7682559490203857,-5.209084510803223,6.497992277145386
1762166306.5663965,4.0,8.0,-997.0,0,0,0,0.7682559490203857,-5.209084510803223,6.497992277145386
1762166306.6818168,6.0,-16.0,-1006.0,0,1,0,0.7682559490203857,-5.093664169311523,6.497992277145386
1762166306.7942216,-13.0,26.0,-1004.0,0,1,0,0.7682559490203857,-4.981259346008301,6.497992277145386
1762166306.9069262,36.0,28.0,-1008.0,0,1,0,0.7682559490203857,-4.8685548305511475,6.497992277145386
1762166307.0199623,7.0,5.0,-1014.0,0,1,0,0.7682559490203857,-4.755518674850464,6.497992277145386
1762166307.1343582,14.0,-19.0,-977.0,0,1,0,0.7682559490203857,-4.641122817993164,6.497992277145386
1762166307.2472007,10.0,-6.0,-979.0,0,1,0,0.7682559490203857,-4.528280258178711,6.497992277145386
1762166307.359391,12.0,4.0,-981.0,0,1,0,0.7682559490203857,-4.41609001159668,6.497992277145386
1762166307.4730685,-1.0,12.0,-970.0,0,1,0,0.7682559490203857,-4.302412509918213,6.497992277145386
1762166307.5862458,-9.0,0.0,-1021.0,0,1,0,0.7682559490203857,-4.189235210418701,6.497992277145386
1762166307.6998777,15.0,-18.0,-977.0,0,0,0,0.7682559490203857,-4.189235210418701,6.497992277145386
1762166307.8133335,-7.0,0.0,-1016.0,0,1,0,0.7682559490203857,-4.075779438018799,6.497992277145386
1762166307.926561,15.0,-15.0,-1031.0,0,1,0,0.7682559490203857,-3.9625518321990967,6.497992277145386
1762166308.039557,-7.0,0.0,-1028.0,0,1,0,0.7682559490203857,-3.8495559692382812,6.497992277145386
1762166308.151922,-13.0,-23.0,-1013.0,0,1,0,0.7682559490203857,-3.7371909618377686,6.497992277145386
1762166308.2652617,11.0,-26.0,-1027.0,0,1,0,0.7682559490203857,-3.6238512992858887,6.497992277145386
1762166308.3783844,-10.0,-27.0,-1001.0,0,1,0,0.7682559490203857,-3.510728597640991,6.497992277145386
1762166308.4906807,-2.0,15.0,-963.0,0,0,0,0.7682559490203857,-3.510728597640991,6.497992277145386
1762166308.6041214,16.0,-8.0,-991.0,0,0,0,0.7682559490203857,-3.510728597640991,6.497992277145386
1762166308.7169282,23.0,-12.0,-1005.0,0,0,0,0.7682559490203857,-3.510728597640991,6.497992277145386
1762166308.8307598,17.0,-15.0,-1006.0,0,0,0,0.7682559490203857,-3.510728597640991,6.497992277145386
1762166308.9432218,2.0,-2.0,-988.0,0,0,0,0.7682559490203857,-3.510728597640991,6.497992277145386
1762166309.0562694,-5.0,9.0,-985.0,0,0,0,0.7682559490203857,-3.510728597640991,6.497992277145386
1762166309.1695201,0.0,5.0,-996.0,0,0,0,0.7682559490203857,-3.510728597640991,6.497992277145386
1762166309.2832441,17.0,-14.0,-1003.0,0,1,0,0.7682559490203857,-3.3970046043395996,6.497992277145386
1762166309.39628,0.0,-4.0,-1005.0,0,1,0,0.7682559490203857,-3.283968687057495,6.497992277145386
1762166309.5091763,-14.0,26.0,-993.0,0,1,0,0.7682559490203857,-3.171072483062744,6.497992277145386
1762166309.6224942,1.0,7.0,-1000.0,0,0,0,0.7682559490203857,-3.171072483062744,6.497992277145386
1762166309.7340682,-26.0,-12.0,-1005.0,0,0,0,0.7682559490203857,-3.171072483062744,6.497992277145386
1762166309.8500834,-24.0,10.0,-994.0,0,0,0,0.7682559490203857,-3.171072483062744,6.497992277145386
1762166309.962184,1.0,-4.0,-987.0,0,0,0,0.7682559490203857,-3.171072483062744,6.497992277145386
1762166310.0747893,-7.0,3.0,-1030.0,0,1,0,0.7682559490203857,-3.058467149734497,6.497992277145386
1762166310.18707,7.0,-4.0,-1025.0,0,0,0,0.7682559490203857,-3.058467149734497,6.497992277145386
1762166310.29899,-14.0,-4.0,-1027.0,0,0,0,0.7682559490203857,-3.058467149734497,6.497992277145386
1762166310.41486,-9.0,4.0,-1031.0,0,0,0,0.7682559490203857,-3.058467149734497,6.497992277145386
1762166310.5269713,11.0,0.0,-1017.0,0,0,0,0.7682559490203857,-3.058467149734497,6.497992277145386
1762166310.640384,-21.0,5.0,-1006.0,0,1,0,0.7682559490203857,-2.945054531097412,6.497992277145386
1762166310.75296,0.0,-24.0,-992.0,0,1,0,0.7682559490203857,-2.8324785232543945,6.497992277145386
1762166310.8667061,-19.0,1.0,-1010.0,0,1,0,0.7682559490203857,-2.7187323570251465,6.497992277145386
1762166310.9785202,-9.0,20.0,-1008.0,0,1,0,0.7682559490203857,-2.6069183349609375,6.497992277145386
1762166311.0906174,14.0,-21.0,-991.0,0,1,0,0.7682559490203857,-2.494821071624756,6.497992277145386
1762166311.202994,10.0,-27.0,-1016.0,0,1,0,0.7682559490203857,-2.382444381713867,6.497992277145386
1762166311.3151708,-2.0,4.0,-989.0,0,1,0,0.7682559490203857,-2.2702677249908447,6.497992277145386
1762166311.430802,-4.0,12.0,-997.0,0,1,0,0.7682559490203857,-2.1546363830566406,6.497992277145386
1762166311.5433779,3.0,-22.0,-985.0,0,1,0,0.7682559490203857,-2.042060613632202,6.497992277145386
1762166311.6556156,-6.0,-29.0,-985.0,0,1,0,0.7682559490203857,-1.9298229217529297,6.497992277145386
1762166311.7674904,-25.0,-7.0,-984.0,0,1,0,0.7682559490203857,-1.8179481029510498,6.497992277145386
1762166311.8680217,-14.0,-7.0,-992.0,0,0,0,0.7682559490203857,-1.8179481029510498,6.497992277145386
1762166311.981672,-17.0,1.0,-982.0,0,0,0,0.7682559490203857,-1.8179481029510498,6.497992277145386
1762166312.0946572,4.0,-16.0,-983.0,0,1,0,0.7682559490203857,-1.704962968826294,6.497992277145386
1762166312.2069147,-23.0,15.0,-1002.0,0,1,0,0.7682559490203857,-1.592705488204956,6.497992277145386
1762166312.320828,-18.0,-10.0,-997.0,0,1,0,0.7682559490203857,-1.4787921905517578,6.497992277145386
1762166312.4335418,8.0,-6.0,-975.0,0,0,0,0.7682559490203857,-1.4787921905517578,6.497992277145386
1762166312.5466785,-10.0,0.0,-1023.0,0,1,0,0.7682559490203857,-1.3656554222106934,6.497992277145386
1762166312.6586273,-4.0,-8.0,-1036.0,0,0,0,0.7682559490203857,-1.3656554222106934,6.497992277145386
1762166312.771092,-10.0,0.0,-1021.0,0,0,0,0.7682559490203857,-1.3656554222106934,6.497992277145386
1762166312.883611,-7.0,-6.0,-1006.0,0,0,0,0.7682559490203857,-1.3656554222106934,6.497992277145386
1762166312.999792,8.0,-1.0,-1004.0,0,0,0,0.7682559490203857,-1.3656554222106934,6.497992277145386
1762166313.112594,-11.0,8.0,-1012.0,0,0,0,0.7682559490203857,-1.3656554222106934,6.497992277145386
1762166313.225277,-10.0,4.0,-992.0,0,0,0,0.7682559490203857,-1.3656554222106934,6.497992277145386
1762166313.338198,-6.0,5.0,-971.0,0,0,0,0.7682559490203857,-1.3656554222106934,6.497992277145386
1762166313.45017,1.0,0.0,-984.0,0,1,0,0.7682559490203857,-1.25368332862854,6.497992277145386
1762166313.565098,-12.0,5.0,-1007.0,0,1,0,0.7682559490203857,-1.1387553215026855,6.497992277145386
1762166313.678173,5.0,2.0,-1000.0,0,0,0,0.7682559490203857,-1.1387553215026855,6.497992277145386
1762166313.7909632,-11.0,-6.0,-989.0,0,0,0,0.7682559490203857,-1.1387553215026855,6.497992277145386
1762166313.9040399,6.0,5.0,-994.0,0,0,0,0.7682559490203857,-1.1387553215026855,6.497992277145386
1762166314.0178173,-23.0,-13.0,-1014.0,0,0,0,0.7682559490203857,-1.1387553215026855,6.497992277145386
1762166314.1311073,-9.0,4.0,-987.0,0,0,0,0.7682559490203857,-1.1387553215026855,6.497992277145386
1762166314.243912,-14.0,-6.0,-1016.0,0,0,0,0.7682559490203857,-1.1387553215026855,6.497992277145386
1762166314.3561473,-8.0,-3.0,-995.0,0,0,0,0.7682559490203857,-1.1387553215026855,6.497992277145386
1762166314.4679806,-1.0,-15.0,-1018.0,0,0,0,0.7682559490203857,-1.1387553215026855,6.497992277145386
1762166314.569319,-22.0,2.0,-1028.0,0,0,0,0.7682559490203857,-1.1387553215026855,6.497992277145386
1762166314.6816897,9.0,21.0,-1008.0,0,0,0,0.7682559490203857,-1.1387553215026855,6.497992277145386
1762166314.7941797,-19.0,13.0,-1019.0,0,0,0,0.7682559490203857,-1.1387553215026855,6.497992277145386
1762166314.90701,-12.0,14.0,-994.0,0,0,0,0.7682559490203857,-1.1387553215026855,6.497992277145386
1762166315.0191844,1.0,9.0,-992.0,0,0,0,0.7682559490203857,-1.1387553215026855,6.497992277145386
1762166315.134037,-9.0,1.0,-1028.0,0,0,0,0.7682559490203857,-1.1387553215026855,6.497992277145386
1762166315.2468011,-27.0,-8.0,-1011.0,0,0,0,0.7682559490203857,-1.1387553215026855,6.497992277145386
1762166315.3600948,-17.0,-10.0,-1015.0,0,0,0,0.7682559490203857,-1.1387553215026855,6.497992277145386
1762166315.4719603,-12.0,0.0,-978.0,0,0,0,0.7682559490203857,-1.1387553215026855,6.497992277145386
1762166315.5838697,-17.0,-10.0,-999.0,0,0,0,0.7682559490203857,-1.1387553215026855,6.497992277145386
1762166315.7003672,-36.0,-12.0,-969.0,0,0,0,0.7682559490203857,-1.1387553215026855,6.497992277145386
1762166315.813387,-8.0,17.0,-980.0,0,0,0,0.7682559490203857,-1.1387553215026855,6.497992277145386
1762166315.9262695,-11.0,-19.0,-991.0,0,0,0,0.7682559490203857,-1.1387553215026855,6.497992277145386
1762166316.0397437,-35.0,-10.0,-987.0,0,0,0,0.7682559490203857,-1.1387553215026855,6.497992277145386
1762166316.1503627,-10.0,2.0,-1031.0,0,0,0,0.7682559490203857,-1.1387553215026855,6.497992277145386
1762166316.2628407,-19.0,21.0,-988.0,0,0,0,0.7682559490203857,-1.1387553215026855,6.497992277145386
1762166316.375755,-10.0,-6.0,-1001.0,0,0,0,0.7682559490203857,-1.1387553215026855,6.497992277145386
1762166316.487815,-24.0,3.0,-1032.0,0,0,0,0.7682559490203857,-1.1387553215026855,6.497992277145386
1762166316.6003387,-2.0,15.0,-1000.0,0,0,0,0.7682559490203857,-1.1387553215026855,6.497992277145386
1762166316.715084,-32.0,-11.0,-1033.0,0,0,0,0.7682559490203857,-1.1387553215026855,6.497992277145386
1762166316.8258235,-16.0,10.0,-1022.0,0,0,0,0.7682559490203857,-1.1387553215026855,6.497992277145386
1762166316.9378119,-14.0,-13.0,-1009.0,0,0,0,0.7682559490203857,-1.1387553215026855,6.497992277145386
1762166317.0499938,-16.0,-18.0,-1012.0,0,0,0,0.7682559490203857,-1.1387553215026855,6.497992277145386
1762166317.1631615,-4.0,-11.0,-1007.0,0,0,0,0.7682559490203857,-1.1387553215026855,6.497992277145386
1762166317.264614,-18.0,-6.0,-996.0,0,0,0,0.7682559490203857,-1.1387553215026855,6.497992277145386
1762166317.377599,-23.0,3.0,-988.0,0,0,0,0.7682559490203857,-1.1387553215026855,6.497992277145386
1762166317.491016,-9.0,10.0,-1009.0,0,0,0,0.7682559490203857,-1.1387553215026855,6.497992277145386
1762166317.6035485,18.0,0.0,-989.0,0,0,0,0.7682559490203857,-1.1387553215026855,6.497992277145386
1762166317.7137477,-12.0,-3.0,-1001.0,0,0,0,0.7682559490203857,-1.1387553215026855,6.497992277145386
1762166317.8142238,-2.0,3.0,-994.0,0,0,0,0.7682559490203857,-1.1387553215026855,6.497992277145386
1762166317.9268467,-5.0,10.0,-986.0,0,0,0,0.7682559490203857,-1.1387553215026855,6.497992277145386
1762166318.040638,-27.0,-5.0,-1017.0,0,0,0,0.7682559490203857,-1.1387553215026855,6.497992277145386
1762166318.153602,-10.0,-24.0,-980.0,0,0,0,0.7682559490203857,-1.1387553215026855,6.497992277145386
1762166318.267059,16.0,9.0,-977.0,0,0,0,0.7682559490203857,-1.1387553215026855,6.497992277145386
1762166318.379926,-16.0,-6.0,-1001.0,0,0,0,0.7682559490203857,-1.1387553215026855,6.497992277145386
1762166318.4913108,-1.0,-25.0,-1000.0,0,0,0,0.7682559490203857,-1.1387553215026855,6.497992277145386
1762166318.6035094,-14.0,-26.0,-1002.0,0,0,0,0.7682559490203857,-1.1387553215026855,6.497992277145386
1762166318.7159529,-26.0,18.0,-975.0,0,0,0,0.7682559490203857,-1.1387553215026855,6.497992277145386
1762166318.816581,-11.0,2.0,-1009.0,0,0,0,0.7682559490203857,-1.1387553215026855,6.497992277145386
1762166318.929768,-7.0,-17.0,-991.0,0,0,0,0.7682559490203857,-1.1387553215026855,6.497992277145386
1762166319.042868,-18.0,-11.0,-1031.0,0,0,0,0.7682559490203857,-1.1387553215026855,6.497992277145386
1762166319.1560688,-16.0,-35.0,-1014.0,0,0,0,0.7682559490203857,-1.1387553215026855,6.497992277145386
1762166319.2666485,-36.0,-4.0,-1014.0,0,0,0,0.7682559490203857,-1.1387553215026855,6.497992277145386
1762166319.3676171,12.0,12.0,-1009.0,0,0,0,0.7682559490203857,-1.1387553215026855,6.497992277145386
1762166319.4804492,-10.0,-24.0,-990.0,0,0,0,0.7682559490203857,-1.1387553215026855,6.497992277145386
1762166319.593259,2.0,-3.0,-981.0,0,0,0,0.7682559490203857,-1.1387553215026855,6.497992277145386
1762166319.7062604,1.0,19.0,-975.0,0,0,0,0.7682559490203857,-1.1387553215026855,6.497992277145386
1762166319.8191152,-11.0,0.0,-1037.0,0,0,0,0.7682559490203857,-1.1387553215026855,6.497992277145386
1762166319.9325395,-8.0,8.0,-1004.0,0,0,0,0.7682559490203857,-1.1387553215026855,6.497992277145386
1762166320.0456076,0.0,-15.0,-983.0,0,0,0,0.7682559490203857,-1.1387553215026855,6.497992277145386
1762166320.158769,-14.0,-9.0,-1007.0,0,0,0,0.7682559490203857,-1.1387553215026855,6.497992277145386
1762166320.2717326,-36.0,-25.0,-1020.0,0,0,0,0.7682559490203857,-1.1387553215026855,6.497992277145386
1762166320.3847446,-25.0,-5.0,-988.0,0,0,0,0.7682559490203857,-1.1387553215026855,6.497992277145386
1762166320.496699,4.0,2.0,-1011.0,0,0,0,0.7682559490203857,-1.1387553215026855,6.497992277145386
1762166320.6101973,-4.0,-15.0,-982.0,0,0,0,0.7682559490203857,-1.1387553215026855,6.497992277145386
1762166320.7229936,-10.0,-12.0,-992.0,0,0,0,0.7682559490203857,-1.1387553215026855,6.497992277145386
1762166320.8359394,2.0,7.0,-1015.0,0,0,0,0.7682559490203857,-1.1387553215026855,6.497992277145386
1762166320.9505517,-18.0,3.0,-1010.0,0,0,0,0.7682559490203857,-1.1387553215026855,6.497992277145386
1762166321.0637276,-7.0,0.0,-1009.0,0,0,0,0.7682559490203857,-1.1387553215026855,6.497992277145386
1762166321.1759243,-21.0,-17.0,-997.0,0,0,0,0.7682559490203857,-1.1387553215026855,6.497992277145386
1762166321.2882,-13.0,-19.0,-1004.0,0,0,0,0.7682559490203857,-1.1387553215026855,6.497992277145386
1762166321.4009814,-5.0,-10.0,-998.0,0,0,0,0.7682559490203857,-1.1387553215026855,6.497992277145386
1762166321.5136368,-14.0,-9.0,-1002.0,0,0,0,0.7682559490203857,-1.1387553215026855,6.497992277145386
1762166321.6263876,-24.0,6.0,-979.0,0,0,0,0.7682559490203857,-1.1387553215026855,6.497992277145386
1762166321.7391195,-5.0,-21.0,-1004.0,0,0,0,0.7682559490203857,-1.1387553215026855,6.497992277145386
1762166321.8518164,8.0,-19.0,-991.0,0,0,0,0.7682559490203857,-1.1387553215026855,6.497992277145386
1762166321.9668143,-5.0,-8.0,-1010.0,0,0,0,0.7682559490203857,-1.1387553215026855,6.497992277145386
1762166322.080111,-5.0,-8.0,-1010.0,0,0,0,0.7682559490203857,-1.1387553215026855,6.497992277145386
1762166322.1928189,-8.0,-10.0,-1010.0,0,0,0,0.7682559490203857,-1.1387553215026855,6.497992277145386
1762166322.3052716,1.0,-21.0,-999.0,0,0,0,0.7682559490203857,-1.1387553215026855,6.497992277145386
1762166322.4179335,18.0,-5.0,-1019.0,0,0,0,0.7682559490203857,-1.1387553215026855,6.497992277145386
1762166322.532356,-2.0,-10.0,-993.0,0,0,0,0.7682559490203857,-1.1387553215026855,6.497992277145386
1762166322.6440647,2.0,-12.0,-998.0,0,0,0,0.7682559490203857,-1.1387553215026855,6.497992277145386
1762166322.7570648,4.0,12.0,-1017.0,0,0,0,0.7682559490203857,-1.1387553215026855,6.497992277145386
1762166322.8693035,-6.0,-9.0,-989.0,0,0,0,0.7682559490203857,-1.1387553215026855,6.497992277145386
1762166322.9820018,26.0,-25.0,-1007.0,0,0,0,0.7682559490203857,-1.1387553215026855,6.497992277145386
1762166323.0824552,4.0,-21.0,-1020.0,0,0,0,0.7682559490203857,-1.1387553215026855,6.497992277145386
1762166323.194746,4.0,-38.0,-1013.0,0,0,0,0.7682559490203857,-1.1387553215026855,6.497992277145386
1762166323.3070545,9.0,-20.0,-987.0,0,0,0,0.7682559490203857,-1.1387553215026855,6.497992277145386
1762166323.4183297,-36.0,-16.0,-980.0,0,0,0,0.7682559490203857,-1.1387553215026855,6.497992277145386
1762166323.5309076,8.0,-22.0,-1000.0,0,0,0,0.7682559490203857,-1.1387553215026855,6.497992277145386
1762166323.6323879,7.0,-18.0,-976.0,0,0,0,0.7682559490203857,-1.1387553215026855,6.497992277145386
1762166323.7444327,8.0,7.0,-978.0,0,0,0,0.7682559490203857,-1.1387553215026855,6.497992277145386
1762166323.8577442,4.0,5.0,-985.0,0,0,0,0.7682559490203857,-1.1387553215026855,6.497992277145386
1762166323.970819,26.0,4.0,-992.0,0,0,0,0.7682559490203857,-1.1387553215026855,6.497992277145386
1762166324.0836794,20.0,-7.0,-986.0,0,0,0,0.7682559490203857,-1.1387553215026855,6.497992277145386
1762166324.1989005,34.0,-13.0,-996.0,0,0,0,0.7682559490203857,-1.1387553215026855,6.497992277145386
1762166324.3110452,24.0,-22.0,-983.0,0,0,0,0.7682559490203857,-1.1387553215026855,6.497992277145386
1762166324.4230874,7.0,-13.0,-1031.0,0,0,0,0.7682559490203857,-1.1387553215026855,6.497992277145386
1762166324.5348635,23.0,-32.0,-1014.0,0,0,0,0.7682559490203857,-1.1387553215026855,6.497992277145386
1762166324.6501312,0.0,-26.0,-1022.0,0,0,0,0.7682559490203857,-1.1387553215026855,6.497992277145386
1762166324.7630575,38.0,-15.0,-992.0,0,0,0,0.7682559490203857,-1.1387553215026855,6.497992277145386
1762166324.8763373,-1.0,-8.0,-987.0,0,0,0,0.7682559490203857,-1.1387553215026855,6.497992277145386
1762166324.9888856,17.0,-7.0,-976.0,0,0,0,0.7682559490203857,-1.1387553215026855,6.497992277145386
1762166325.101224,-1.0,-7.0,-977.0,0,0,0,0.7682559490203857,-1.1387553215026855,6.497992277145386
1762166325.2170093,10.0,-14.0,-993.0,0,0,0,0.7682559490203857,-1.1387553215026855,6.497992277145386
1762166325.3304608,6.0,-27.0,-988.0,0,0,0,0.7682559490203857,-1.1387553215026855,6.497992277145386
1762166325.4431052,20.0,-34.0,-1003.0,0,0,0,0.7682559490203857,-1.1387553215026855,6.497992277145386
1762166325.5553088,12.0,-18.0,-989.0,0,0,0,0.7682559490203857,-1.1387553215026855,6.497992277145386
1762166325.6684043,4.0,-8.0,-982.0,0,0,0,0.7682559490203857,-1.1387553215026855,6.497992277145386
1762166325.7811048,5.0,-11.0,-1003.0,0,0,0,0.7682559490203857,-1.1387553215026855,6.497992277145386
1762166325.89392,11.0,16.0,-1002.0,0,0,0,0.7682559490203857,-1.1387553215026855,6.497992277145386
1762166326.0073082,8.0,-13.0,-993.0,0,0,0,0.7682559490203857,-1.1387553215026855,6.497992277145386
1762166326.120669,-4.0,-8.0,-1025.0,0,0,0,0.7682559490203857,-1.1387553215026855,6.497992277145386
1762166326.2335818,-6.0,-17.0,-1011.0,0,0,0,0.7682559490203857,-1.1387553215026855,6.497992277145386
1762166326.3402095,-4.0,0.0,-1005.0,0,0,0,0.7682559490203857,-1.1387553215026855,6.497992277145386
1762166326.449673,22.0,-36.0,-997.0,0,0,0,0.7682559490203857,-1.1387553215026855,6.497992277145386
1762166326.5625587,9.0,-18.0,-1026.0,0,0,0,0.7682559490203857,-1.1387553215026855,6.497992277145386
1762166326.6748562,29.0,-55.0,-1007.0,0,0,0,0.7682559490203857,-1.1387553215026855,6.497992277145386
1762166326.7861521,30.0,-21.0,-973.0,0,0,0,0.7682559490203857,-1.1387553215026855,6.497992277145386
1762166326.901259,6.0,-9.0,-959.0,0,0,0,0.7682559490203857,-1.1387553215026855,6.497992277145386
1762166327.0024192,28.0,-18.0,-936.0,0,0,0,0.7682559490203857,-1.1387553215026855,6.497992277145386
1762166327.1029239,-24.0,-5.0,-933.0,0,0,-1,0.7682559490203857,-1.1387553215026855,6.397487640380859
1762166327.2180853,-7.0,-4.0,-929.0,0,0,-2,0.7682559490203857,-1.1387553215026855,6.1671648025512695
1762166327.3193066,9.0,-25.0,-943.0,0,0,-3,0.7682559490203857,-1.1387553215026855,5.8635008335113525
1762166327.4345956,-11.0,-23.0,-960.0,0,0,-3,0.7682559490203857,-1.1387553215026855,5.51763391494751
1762166327.536916,-18.0,-11.0,-956.0,0,0,-4,0.7682559490203857,-1.1387553215026855,5.108352184295654
1762166327.6498234,-44.0,2.0,-977.0,0,0,-4,0.7682559490203857,-1.1387553215026855,4.656722545623779
1762166327.7630143,-27.0,0.0,-986.0,0,0,-5,0.7682559490203857,-1.1387553215026855,4.090768098831177
1762166327.8660607,-9.0,-16.0,-985.0,0,0,-5,0.7682559490203857,-1.1387553215026855,3.575536012649536
1762166327.9790652,0.0,16.0,-970.0,0,0,-5,0.7682559490203857,-1.1387553215026855,3.0105137825012207
1762166328.0922115,-28.0,13.0,-971.0,0,0,-5,0.7682559490203857,-1.1387553215026855,2.444782257080078
1762166328.2045841,-28.0,8.0,-1018.0,0,0,-5,0.7682559490203857,-1.1387553215026855,1.8829190731048584
1762166328.3170843,-28.0,19.0,-1014.0,0,0,-5,0.7682559490203857,-1.1387553215026855,1.320418119430542
1762166328.4317112,-18.0,3.0,-1279.0,1,0,-4,0.882882833480835,-1.1387553215026855,0.8619105815887451
1762166328.5441873,-31.0,-1.0,-1012.0,0,0,-1,0.882882833480835,-1.1387553215026855,0.7494344711303711
1762166328.656605,-34.0,-4.0,-893.0,0,0,1,0.882882833480835,-1.1387553215026855,0.8618521690368652
1762166328.7689257,-32.0,-11.0,-965.0,0,0,0,0.882882833480835,-1.1387553215026855,0.8618521690368652
1762166328.8841627,-34.0,0.0,-930.0,0,0,0,0.882882833480835,-1.1387553215026855,0.8618521690368652
1762166328.9969616,-38.0,-13.0,-1039.0,0,0,0,0.882882833480835,-1.1387553215026855,0.8618521690368652
1762166329.110832,8.0,-27.0,-1054.0,0,0,0,0.882882833480835,-1.1387553215026855,0.8618521690368652
1762166329.2240539,-6.0,-2.0,-1001.0,0,0,0,0.882882833480835,-1.1387553215026855,0.8618521690368652
1762166329.336173,1.0,7.0,-1004.0,0,0,0,0.882882833480835,-1.1387553215026855,0.8618521690368652
1762166329.4492135,0.0,-17.0,-985.0,0,0,0,0.882882833480835,-1.1387553215026855,0.8618521690368652
1762166329.562807,-11.0,-6.0,-991.0,0,0,0,0.882882833480835,-1.1387553215026855,0.8618521690368652
1762166329.6758597,4.0,-5.0,-1002.0,0,0,0,0.882882833480835,-1.1387553215026855,0.8618521690368652
1762166329.7897134,1.0,-4.0,-998.0,0,0,0,0.882882833480835,-1.1387553215026855,0.8618521690368652
1762166329.902351,-10.0,0.0,-1004.0,0,0,0,0.882882833480835,-1.1387553215026855,0.8618521690368652
1762166330.01453,-1.0,-8.0,-1002.0,0,0,0,0.882882833480835,-1.1387553215026855,0.8618521690368652
1762166330.1274858,4.0,-5.0,-998.0,0,0,0,0.882882833480835,-1.1387553215026855,0.8618521690368652
1762166330.2401235,6.0,0.0,-1000.0,0,0,0,0.882882833480835,-1.1387553215026855,0.8618521690368652
1762166330.3529718,0.0,-11.0,-999.0,0,0,0,0.882882833480835,-1.1387553215026855,0.8618521690368652
1762166330.465815,0.0,3.0,-1001.0,0,0,0,0.882882833480835,-1.1387553215026855,0.8618521690368652
1762166330.5804212,-4.0,-3.0,-1002.0,0,0,0,0.882882833480835,-1.1387553215026855,0.8618521690368652
1762166330.6925156,-3.0,-2.0,-1005.0,0,0,1,0.882882833480835,-1.1387553215026855,0.9739465713500977
1762166330.805485,1.0,-1.0,-1001.0,0,0,1,0.882882833480835,-1.1387553215026855,1.0869159698486328
1762166330.9172494,-3.0,-2.0,-1004.0,0,0,1,0.882882833480835,-1.1387553215026855,1.1986804008483887
1762166331.017726,2.0,-3.0,-1004.0,0,0,1,0.882882833480835,-1.1387553215026855,1.299156904220581
1762166331.1199615,0.0,-3.0,-1001.0,0,0,1,0.882882833480835,-1.1387553215026855,1.4013924598693848
1762166331.2212148,1.0,-5.0,-1004.0,0,0,1,0.882882833480835,-1.1387553215026855,1.50264573097229
1762166331.3328326,-3.0,1.0,-1000.0,0,0,1,0.882882833480835,-1.1387553215026855,1.6142635345458984
1762166331.4452577,-1.0,-2.0,-1004.0,0,0,2,0.882882833480835,-1.1387553215026855,1.839113712310791
1762166331.5476708,0.0,0.0,-1003.0,0,0,2,0.882882833480835,-1.1387553215026855,2.0439400672912598
1762166331.652731,-3.0,-1.0,-1003.0,0,0,2,0.882882833480835,-1.1387553215026855,2.2540602684020996
1762166331.7543342,0.0,-1.0,-1001.0,0,0,2,0.882882833480835,-1.1387553215026855,2.4572668075561523
1762166331.8680017,1.0,-4.0,-1002.0,0,0,2,0.882882833480835,-1.1387553215026855,2.6846017837524414
1762166331.9683573,0.0,-3.0,-1001.0,0,0,3,0.882882833480835,-1.1387553215026855,2.985668659210205
1762166332.069239,0.0,-3.0,-1004.0,0,0,3,0.882882833480835,-1.1387553215026855,3.288313388824463
1762166332.1705248,0.0,-4.0,-1005.0,0,0,3,0.882882833480835,-1.1387553215026855,3.5921711921691895
1762166332.2858381,-2.0,-3.0,-1004.0,0,0,3,0.882882833480835,-1.1387553215026855,3.9381110668182373
1762166332.3866746,0.0,-2.0,-1005.0,0,0,3,0.882882833480835,-1.1387553215026855,4.2406206130981445
1762166332.499168,0.0,-3.0,-1007.0,0,0,4,0.882882833480835,-1.1387553215026855,4.690593719482422
1762166332.5998244,-1.0,-5.0,-1007.0,0,0,4,0.882882833480835,-1.1387553215026855,5.093219757080078
1762166332.7124753,-1.0,-4.0,-1010.0,0,0,4,0.882882833480835,-1.1387553215026855,5.5438232421875
1762166332.8184588,-2.0,-5.0,-1009.0,0,0,4,0.882882833480835,-1.1387553215026855,5.967757225036621
1762166332.9303596,0.0,-2.0,-1008.0,0,0,4,0.882882833480835,-1.1387553215026855,6.415360450744629
1762166333.043487,0.0,-2.0,-1008.0,0,0,4,0.882882833480835,-1.1387553215026855,6.867870330810547
1762166333.1495333,-1.0,-4.0,-1007.0,0,0,4,0.882882833480835,-1.1387553215026855,7.292055130004883
1762166333.261743,-1.0,-4.0,-1006.0,0,0,4,0.882882833480835,-1.1387553215026855,7.740894317626953
1762166333.3686967,0.0,-5.0,-1008.0,0,0,4,0.882882833480835,-1.1387553215026855,8.168708801269531
1762166333.4816985,-1.0,-4.0,-1005.0,0,0,4,0.882882833480835,-1.1387553215026855,8.620716094970703
1762166333.5947287,1.0,-3.0,-1003.0,0,0,4,0.882882833480835,-1.1387553215026855,9.072836875915527
1762166333.698519,0.0,-1.0,-1005.0,0,0,4,0.882882833480835,-1.1387553215026855,9.487998008728027
1762166333.8013551,-1.0,-1.0,-1006.0,0,0,4,0.882882833480835,-1.1387553215026855,9.89934253692627
1762166333.9145725,0.0,-5.0,-1006.0,0,0,4,0.882882833480835,-1.1387553215026855,10.352211952209473
1762166334.0280838,-1.0,-3.0,-1005.0,0,0,4,0.882882833480835,-1.1387553215026855,10.806257247924805
1762166334.1359699,-1.0,-5.0,-1009.0,0,0,4,0.882882833480835,-1.1387553215026855,11.237801551818848
1762166334.248931,1.0,-3.0,-1001.0,0,0,4,0.882882833480835,-1.1387553215026855,11.689645767211914
1762166334.3620176,-1.0,-2.0,-1005.0,0,0,4,0.882882833480835,-1.1387553215026855,12.141992568969727
1762166334.4747791,0.0,-2.0,-1005.0,0,0,4,0.882882833480835,-1.1387553215026855,12.593038558959961
1762166334.5860226,-1.0,-2.0,-1005.0,0,0,3,0.882882833480835,-1.1387553215026855,12.926769018173218
1762166334.701057,-1.0,-5.0,-1009.0,0,0,3,0.882882833480835,-1.1387553215026855,13.27187204360962
1762166334.8139722,1.0,-2.0,-1004.0,0,0,3,0.882882833480835,-1.1387553215026855,13.610617876052856
1762166334.9268947,-1.0,-2.0,-1006.0,0,0,3,0.882882833480835,-1.1387553215026855,13.949385166168213
1762166335.0403337,-1.0,-2.0,-1005.0,0,0,3,0.882882833480835,-1.1387553215026855,14.289702415466309
1762166335.1535306,-1.0,-1.0,-1005.0,0,0,3,0.882882833480835,-1.1387553215026855,14.629292964935303
1762166335.2664547,-2.0,-3.0,-1001.0,0,0,3,0.882882833480835,-1.1387553215026855,14.96806526184082
1762166335.3795178,-1.0,-3.0,-1003.0,0,0,3,0.882882833480835,-1.1387553215026855,15.307254552841187
1762166335.4914494,0.0,0.0,-1003.0,0,0,3,0.882882833480835,-1.1387553215026855,15.643049240112305
1762166335.6044838,-1.0,-1.0,-1004.0,0,0,3,0.882882833480835,-1.1387553215026855,15.982152700424194
1762166335.7176979,-2.0,-3.0,-1003.0,0,0,3,0.882882833480835,-1.1387553215026855,16.321794748306274
1762166335.8323405,-1.0,-1.0,-1004.0,0,0,3,0.882882833480835,-1.1387553215026855,16.665722608566284
1762166335.9457753,0.0,-1.0,-1004.0,0,0,2,0.882882833480835,-1.1387553215026855,16.892592191696167
1762166336.0579982,-1.0,-3.0,-998.0,0,0,2,0.882882833480835,-1.1387553215026855,17.117038011550903
1762166336.1710262,-2.0,-2.0,-1002.0,0,0,2,0.882882833480835,-1.1387553215026855,17.34309411048889
1762166336.2847953,-2.0,-1.0,-1000.0,0,0,2,0.882882833480835,-1.1387553215026855,17.570632219314575
1762166336.3970666,0.0,-3.0,-1002.0,0,0,2,0.882882833480835,-1.1387553215026855,17.795174837112427
1762166336.5098195,-2.0,-3.0,-1003.0,0,0,2,0.882882833480835,-1.1387553215026855,18.02068066596985
1762166336.6230993,0.0,-3.0,-999.0,0,0,2,0.882882833480835,-1.1387553215026855,18.2472403049469
1762166336.735878,1.0,-2.0,-1003.0,0,0,2,0.882882833480835,-1.1387553215026855,18.472797632217407
1762166336.8368118,-1.0,-2.0,-1002.0,0,0,2,0.882882833480835,-1.1387553215026855,18.674665212631226
1762166336.948062,0.0,-2.0,-999.0,0,0,2,0.882882833480835,-1.1387553215026855,18.897165536880493
1762166337.061017,-3.0,-1.0,-1002.0,0,0,2,0.882882833480835,-1.1387553215026855,19.12307572364807
1762166337.1726818,0.0,-2.0,-1001.0,0,0,2,0.882882833480835,-1.1387553215026855,19.346405267715454
1762166337.2862968,1.0,-5.0,-1000.0,0,0,2,0.882882833480835,-1.1387553215026855,19.57363533973694
1762166337.399315,-1.0,-3.0,-1000.0,0,0,2,0.882882833480835,-1.1387553215026855,19.79967188835144
1762166337.5117428,0.0,-3.0,-1001.0,0,0,1,0.882882833480835,-1.1387553215026855,19.912099599838257
1762166337.6254418,0.0,-4.0,-1001.0,0,0,1,0.882882833480835,-1.1387553215026855,20.025798559188843
1762166337.7354786,-1.0,-3.0,-1001.0,0,0,1,0.882882833480835,-1.1387553215026855,20.13583540916443
1762166337.8504794,0.0,-1.0,-998.0,0,0,0,0.882882833480835,-1.1387553215026855,20.13583540916443
1762166337.9642017,-2.0,-1.0,-999.0,0,0,0,0.882882833480835,-1.1387553215026855,20.13583540916443
1762166338.0772254,-1.0,-1.0,-1000.0,0,0,0,0.882882833480835,-1.1387553215026855,20.13583540916443
1762166338.1849,0.0,-1.0,-998.0,0,0,0,0.882882833480835,-1.1387553215026855,20.13583540916443
1762166338.2861376,-1.0,-2.0,-999.0,0,0,0,0.882882833480835,-1.1387553215026855,20.13583540916443
1762166338.401373,0.0,-3.0,-997.0,0,0,0,0.882882833480835,-1.1387553215026855,20.13583540916443
1762166338.5028107,0.0,-2.0,-998.0,0,0,0,0.882882833480835,-1.1387553215026855,20.13583540916443
1762166338.6179602,-2.0,-3.0,-1000.0,0,0,0,0.882882833480835,-1.1387553215026855,20.13583540916443
1762166338.7193315,0.0,-3.0,-998.0,0,0,0,0.882882833480835,-1.1387553215026855,20.13583540916443
1762166338.8197107,-1.0,-2.0,-1001.0,0,0,0,0.882882833480835,-1.1387553215026855,20.13583540916443
1762166338.9204073,0.0,-2.0,-998.0,0,0,0,0.882882833480835,-1.1387553215026855,20.13583540916443
1762166339.0333812,0.0,-3.0,-998.0,0,0,0,0.882882833480835,-1.1387553215026855,20.13583540916443
1762166339.146251,-1.0,-3.0,-998.0,0,0,0,0.882882833480835,-1.1387553215026855,20.13583540916443
1762166339.2592523,0.0,-2.0,-1000.0,0,0,0,0.882882833480835,-1.1387553215026855,20.13583540916443
1762166339.3727448,0.0,-2.0,-1000.0,0,0,0,0.882882833480835,-1.1387553215026855,20.13583540916443
1762166339.483379,-2.0,-2.0,-997.0,0,0,0,0.882882833480835,-1.1387553215026855,20.13583540916443
1762166339.596298,0.0,-2.0,-999.0,0,0,0,0.882882833480835,-1.1387553215026855,20.13583540916443
