Time,Ax,Ay,Az,Sx,Sy,Sz,x,y,z
1762166267.8068345,-10.0,-9.0,-997.0,0,0,0,0.0,0.0,0.0
1762166267.907875,-10.0,-8.0,-998.0,0,0,0,0.0,0.0,0.0
1762166268.0082917,-10.0,-6.0,-999.0,0,0,0,0.0,0.0,0.0
1762166268.1087291,-10.0,-7.0,-1002.0,0,0,0,0.0,0.0,0.0
1762166268.209276,-10.0,-8.0,-1001.0,0,0,0,0.0,0.0,0.0
1762166268.3094623,-10.0,-7.0,-1000.0,0,0,0,0.0,0.0,0.0
1762166268.4099038,-10.0,-8.0,-999.0,0,0,0,0.0,0.0,0.0
1762166268.5106702,-10.0,-8.0,-1002.0,0,0,0,0.0,0.0,0.0
1762166268.6116462,-9.0,-8.0,-1001.0,0,0,0,0.0,0.0,0.0
1762166268.7119954,-10.0,-7.0,-999.0,0,0,0,0.0,0.0,0.0
1762166268.8122683,-9.0,-9.0,-1000.0,0,0,0,0.0,0.0,0.0
1762166268.9127934,-10.0,-10.0,-998.0,0,0,0,0.0,0.0,0.0
1762166269.0133317,-9.0,-10.0,-1000.0,0,0,0,0.0,0.0,0.0
1762166269.1136632,-11.0,-9.0,-1002.0,0,0,0,0.0,0.0,0.0
1762166269.2138638,-11.0,-8.0,-999.0,0,0,0,0.0,0.0,0.0
1762166269.314229,-9.0,-8.0,-1001.0,0,0,0,0.0,0.0,0.0
1762166269.414831,-10.0,-9.0,-999.0,0,0,0,0.0,0.0,0.0
1762166269.5154335,-10.0,-9.0,-999.0,0,0,0,0.0,0.0,0.0
1762166269.615807,-10.0,-8.0,-999.0,0,0,0,0.0,0.0,0.0
1762166269.7160242,-10.0,-7.0,-999.0,0,0,0,0.0,0.0,0.0
1762166269.8164954,-10.0,-9.0,-999.0,0,0,0,0.0,0.0,0.0
1762166269.9169228,-10.0,-9.0,-999.0,0,0,0,0.0,0.0,0.0
1762166270.017418,-10.0,-9.0,-999.0,0,0,0,0.0,0.0,0.0
1762166270.1177387,-11.0,-8.0,-999.0,0,0,0,0.0,0.0,0.0
1762166270.2180796,-11.0,-5.0,-1001.0,0,0,0,0.0,0.0,0.0
1762166270.3182225,-16.0,-20.0,-996.0,0,0,0,0.0,0.0,0.0
1762166270.418366,-17.0,-3.0,-999.0,0,0,0,0.0,0.0,0.0
1762166270.518775,-19.0,-18.0,-998.0,0,0,0,0.0,0.0,0.0
1762166270.6191647,-23.0,-18.0,-1002.0,0,0,0,0.0,0.0,0.0
1762166270.7194946,-27.0,0.0,-985.0,0,0,0,0.0,0.0,0.0
1762166270.8200316,-1.0,1.0,-1008.0,0,0,1,0.0,0.0,0.10053706169128418
1762166270.9207244,-8.0,-9.0,-1085.0,0,0,2,0.0,0.0,0.3019225597381592
1762166271.0213244,-21.0,-12.0,-1069.0,0,0,4,0.0,0.0,0.7043225765228271
1762166271.1218598,-16.0,8.0,-1058.0,0,0,5,0.0,0.0,1.2069995403289795
1762166271.2225764,-25.0,3.0,-1006.0,0,0,5,0.0,0.0,1.7105824947357178
1762166271.3228238,-14.0,-3.0,-1062.0,0,0,5,0.0,0.0,2.2118194103240967
1762166271.423289,-1.0,-9.0,-1015.0,0,0,5,0.0,0.0,2.7141458988189697
1762166271.5241823,-36.0,-6.0,-982.0,0,0,5,0.0,0.0,3.2186121940612793
1762166271.6247337,-7.0,0.0,-971.0,0,0,5,0.0,0.0,3.7213690280914307
1762166271.725269,-3.0,3.0,-965.0,0,0,5,0.0,0.0,4.224045991897583
1762166271.8254597,-21.0,7.0,-947.0,0,0,5,0.0,0.0,4.724999189376831
1762166271.9256134,-27.0,-9.0,-953.0,0,0,4,0.0,0.0,5.1256139278411865
1762166272.0259147,-8.0,-1.0,-958.0,0,0,4,0.0,0.0,5.5268189907073975
1762166272.126428,-27.0,0.0,-914.0,0,0,3,0.0,0.0,5.8283586502075195
1762166272.2268116,-5.0,7.0,-937.0,0,0,3,0.0,0.0,6.129509925842285
1762166272.327471,-15.0,6.0,-941.0,0,0,2,0.0,0.0,6.330828666687012
1762166272.4284987,-31.0,20.0,-940.0,0,0,1,0.0,0.0,6.431856393814087
1762166272.5286806,-28.0,10.0,-938.0,0,0,1,0.0,0.0,6.53203821182251
1762166272.628986,-15.0,8.0,-950.0,0,0,0,0.0,0.0,6.53203821182251
1762166272.7294436,-10.0,-8.0,-956.0,0,0,0,0.0,0.0,6.53203821182251
1762166272.8301542,-6.0,2.0,-953.0,0,0,0,0.0,0.0,6.53203821182251
1762166272.9308333,-25.0,-7.0,-972.0,0,0,0,0.0,0.0,6.53203821182251
1762166273.031506,-7.0,5.0,-965.0,0,0,0,0.0,0.0,6.53203821182251
1762166273.1318076,-15.0,-23.0,-1008.0,0,0,0,0.0,0.0,6.53203821182251
1762166273.2322633,2.0,-7.0,-993.0,0,0,0,0.0,0.0,6.53203821182251
1762166273.3325796,-22.0,7.0,-1024.0,0,0,0,0.0,0.0,6.53203821182251
1762166273.4334807,-22.0,0.0,-984.0,0,0,0,0.0,0.0,6.53203821182251
1762166273.5339913,-27.0,-5.0,-987.0,0,0,0,0.0,0.0,6.53203821182251
1762166273.6345143,-29.0,4.0,-1000.0,0,0,0,0.0,0.0,6.53203821182251
1762166273.7348042,-1.0,8.0,-1003.0,0,0,0,0.0,0.0,6.53203821182251
1762166273.8352401,-13.0,19.0,-1012.0,0,0,0,0.0,0.0,6.53203821182251
1762166273.935879,-13.0,15.0,-1015.0,0,0,0,0.0,0.0,6.53203821182251
1762166274.0364,8.0,0.0,-1020.0,0,0,0,0.0,0.0,6.53203821182251
1762166274.1369193,-5.0,9.0,-993.0,0,0,0,0.0,0.0,6.53203821182251
1762166274.2372117,-32.0,3.0,-977.0,0,0,0,0.0,0.0,6.53203821182251
1762166274.3375366,-12.0,0.0,-1017.0,0,0,0,0.0,0.0,6.53203821182251
1762166274.4383352,-38.0,5.0,-1018.0,0,0,0,0.0,0.0,6.53203821182251
1762166274.5384853,-14.0,19.0,-995.0,0,0,0,0.0,0.0,6.53203821182251
1762166274.639007,-17.0,11.0,-1025.0,0,0,0,0.0,0.0,6.53203821182251
1762166274.739636,-16.0,16.0,-996.0,0,0,0,0.0,0.0,6.53203821182251
1762166274.8400168,-31.0,25.0,-1012.0,0,0,0,0.0,0.0,6.53203821182251
1762166274.9403958,-12.0,10.0,-981.0,0,0,0,0.0,0.0,6.53203821182251
1762166275.0406818,-26.0,6.0,-997.0,0,0,0,0.0,0.0,6.53203821182251
1762166275.141147,-45.0,3.0,-1017.0,0,0,0,0.0,0.0,6.53203821182251
1762166275.2414403,-24.0,5.0,-1009.0,0,0,0,0.0,0.0,6.53203821182251
1762166275.341994,-40.0,0.0,-986.0,0,0,0,0.0,0.0,6.53203821182251
1762166275.4423292,-38.0,-9.0,-996.0,0,0,0,0.0,0.0,6.53203821182251
1762166275.5425558,-8.0,0.0,-979.0,0,0,0,0.0,0.0,6.53203821182251
1762166275.64291,-5.0,-2.0,-993.0,0,0,0,0.0,0.0,6.53203821182251
1762166275.743202,-11.0,15.0,-1017.0,0,0,0,0.0,0.0,6.53203821182251
1762166275.8438995,-28.0,6.0,-1023.0,0,0,0,0.0,0.0,6.53203821182251
1762166275.9442592,-37.0,5.0,-1009.0,0,0,0,0.0,0.0,6.53203821182251
1762166276.044569,3.0,-5.0,-992.0,0,0,0,0.0,0.0,6.53203821182251
1762166276.1447551,-16.0,11.0,-1005.0,0,0,0,0.0,0.0,6.53203821182251
1762166276.2453518,-3.0,10.0,-998.0,0,0,0,0.0,0.0,6.53203821182251
1762166276.345603,-13.0,19.0,-989.0,0,0,0,0.0,0.0,6.53203821182251
1762166276.4461305,-11.0,10.0,-1005.0,0,0,0,0.0,0.0,6.53203821182251
1762166276.546378,0.0,26.0,-1021.0,0,0,0,0.0,0.0,6.53203821182251
1762166276.6469357,-10.0,17.0,-1019.0,0,0,0,0.0,0.0,6.53203821182251
1762166276.7471516,-18.0,13.0,-983.0,0,0,0,0.0,0.0,6.53203821182251
1762166276.847764,-4.0,33.0,-1018.0,0,0,0,0.0,0.0,6.53203821182251
1762166276.947936,-11.0,-3.0,-974.0,0,0,0,0.0,0.0,6.53203821182251
1762166277.0484173,-17.0,-4.0,-994.0,0,0,0,0.0,0.0,6.53203821182251
1762166277.1486006,-17.0,-6.0,-1068.0,0,0,0,0.0,0.0,6.53203821182251
1762166277.2492888,-8.0,12.0,-1033.0,0,0,0,0.0,0.0,6.53203821182251
1762166277.3497643,-16.0,12.0,-1001.0,0,0,0,0.0,0.0,6.53203821182251
1762166277.4503057,-4.0,19.0,-996.0,0,0,0,0.0,0.0,6.53203821182251
1762166277.55055,-39.0,5.0,-1016.0,0,0,0,0.0,0.0,6.53203821182251
1762166277.650921,-19.0,8.0,-966.0,0,0,0,0.0,0.0,6.53203821182251
1762166277.7513843,-26.0,0.0,-967.0,0,0,0,0.0,0.0,6.53203821182251
1762166277.8519263,-25.0,14.0,-985.0,0,0,0,0.0,0.0,6.53203821182251
1762166277.9524043,-12.0,17.0,-995.0,0,0,0,0.0,0.0,6.53203821182251
1762166278.0525486,-33.0,4.0,-1002.0,0,0,0,0.0,0.0,6.53203821182251
1762166278.1530032,-26.0,9.0,-991.0,0,0,0,0.0,0.0,6.53203821182251
1762166278.2531576,-17.0,26.0,-975.0,0,0,0,0.0,0.0,6.53203821182251
1762166278.3535366,-31.0,6.0,-1005.0,0,0,0,0.0,0.0,6.53203821182251
1762166278.4545348,-34.0,15.0,-1015.0,0,0,0,0.0,0.0,6.53203821182251
1762166278.5550685,-15.0,11.0,-1020.0,0,0,0,0.0,0.0,6.53203821182251
1762166278.6552382,-36.0,21.0,-1018.0,0,0,0,0.0,0.0,6.53203821182251
1762166278.7559037,-43.0,-3.0,-986.0,0,0,0,0.0,0.0,6.53203821182251
1762166278.856586,-27.0,-9.0,-958.0,0,0,0,0.0,0.0,6.53203821182251
1762166278.956746,-32.0,9.0,-1031.0,0,0,0,0.0,0.0,6.53203821182251
1762166279.0573792,-28.0,8.0,-1001.0,0,0,0,0.0,0.0,6.53203821182251
1762166279.1580598,-18.0,2.0,-1004.0,0,0,0,0.0,0.0,6.53203821182251
1762166279.2582364,-20.0,-8.0,-990.0,0,0,0,0.0,0.0,6.53203821182251
1762166279.3584926,-23.0,8.0,-999.0,0,0,0,0.0,0.0,6.53203821182251
1762166279.4594147,-15.0,-3.0,-995.0,0,0,0,0.0,0.0,6.53203821182251
1762166279.5595698,-13.0,-5.0,-1043.0,0,0,0,0.0,0.0,6.53203821182251
1762166279.660192,-16.0,-4.0,-1043.0,0,0,0,0.0,0.0,6.53203821182251
1762166279.760725,-10.0,-8.0,-1012.0,0,0,0,0.0,0.0,6.53203821182251
1762166279.8608727,-31.0,-2.0,-1002.0,0,0,0,0.0,0.0,6.53203821182251
1762166279.9610317,-3.0,-7.0,-983.0,0,0,0,0.0,0.0,6.53203821182251
1762166280.061287,-23.0,1.0,-962.0,0,0,0,0.0,0.0,6.53203821182251
1762166280.1620114,-16.0,20.0,-990.0,0,0,0,0.0,0.0,6.53203821182251
1762166280.262767,-36.0,-1.0,-970.0,0,0,0,0.0,0.0,6.53203821182251
1762166280.363505,-14.0,-7.0,-1011.0,0,0,0,0.0,0.0,6.53203821182251
1762166280.4637418,-24.0,-9.0,-1011.0,0,0,0,0.0,0.0,6.53203821182251
1762166280.5641856,-39.0,-13.0,-996.0,0,0,0,0.0,0.0,6.53203821182251
1762166280.664797,-56.0,10.0,-992.0,0,0,0,0.0,0.0,6.53203821182251
1762166280.76495,-19.0,-27.0,-981.0,0,0,0,0.0,0.0,6.53203821182251
1762166280.8656628,-45.0,-7.0,-973.0,0,0,0,0.0,0.0,6.53203821182251
1762166280.9662125,-58.0,-2.0,-1026.0,0,0,0,0.0,0.0,6.53203821182251
1762166281.0664246,-37.0,2.0,-990.0,0,0,0,0.0,0.0,6.53203821182251
1762166281.1667168,-34.0,0.0,-1009.0,0,0,0,0.0,0.0,6.53203821182251
1762166281.2670276,-56.0,-11.0,-1011.0,0,0,0,0.0,0.0,6.53203821182251
1762166281.3676114,-49.0,11.0,-1004.0,0,0,0,0.0,0.0,6.53203821182251
1762166281.4680843,-49.0,5.0,-981.0,0,0,0,0.0,0.0,6.53203821182251
1762166281.5687444,-55.0,-26.0,-1013.0,0,0,0,0.0,0.0,6.53203821182251
1762166281.6689243,-16.0,-20.0,-985.0,0,0,0,0.0,0.0,6.53203821182251
1762166281.7692914,-47.0,-26.0,-1029.0,0,0,0,0.0,0.0,6.53203821182251
1762166281.8696299,-9.0,-12.0,-959.0,0,0,0,0.0,0.0,6.53203821182251
1762166281.9699852,-19.0,14.0,-1021.0,0,0,0,0.0,0.0,6.53203821182251
1762166282.070372,2.0,0.0,-1004.0,0,-1,0,0.0,-0.1003868579864502,6.53203821182251
1762166282.1709476,-12.0,-6.0,-987.0,0,-1,0,0.0,-0.20096230506896973,6.53203821182251
1762166282.2712412,-48.0,10.0,-996.0,0,-1,0,0.0,-0.3012559413909912,6.53203821182251
1762166282.3714552,-56.0,1.0,-979.0,0,-1,0,0.0,-0.4014699459075928,6.53203821182251
1762166282.472123,-37.0,-11.0,-998.0,0,0,0,0.0,-0.4014699459075928,6.53203821182251
1762166282.5727606,-37.0,16.0,-1022.0,0,0,0,0.0,-0.4014699459075928,6.53203821182251
1762166282.6730652,-29.0,13.0,-975.0,0,0,0,0.0,-0.4014699459075928,6.53203821182251
1762166282.7738903,-50.0,18.0,-986.0,0,0,0,0.0,-0.4014699459075928,6.53203821182251
1762166282.8747602,-23.0,18.0,-1016.0,0,0,0,0.0,-0.4014699459075928,6.53203821182251
1762166282.9749253,-26.0,28.0,-992.0,0,-1,0,0.0,-0.5016350746154785,6.53203821182251
1762166283.0752554,-46.0,-3.0,-1020.0,0,-1,0,0.0,-0.6019651889801025,6.53203821182251
1762166283.1760197,-36.0,4.0,-1025.0,0,-1,0,0.0,-0.7027294635772705,6.53203821182251
1762166283.2763398,-45.0,15.0,-991.0,0,-1,0,0.0,-0.8030495643615723,6.53203821182251
1762166283.3771067,-40.0,22.0,-1006.0,0,-1,0,0.0,-0.9038164615631104,6.53203821182251
1762166283.4772737,-56.0,18.0,-1008.0,0,-1,0,0.0,-1.003983497619629,6.53203821182251
1762166283.577756,-39.0,19.0,-1009.0,0,-1,0,0.0,-1.1044657230377197,6.53203821182251
1762166283.6780045,-23.0,25.0,-989.0,0,0,0,0.0,-1.1044657230377197,6.53203821182251
1762166283.7788503,-47.0,-1.0,-975.0,0,-1,0,0.0,-1.2053115367889404,6.53203821182251
1762166283.8791997,-42.0,4.0,-974.0,0,0,0,0.0,-1.2053115367889404,6.53203821182251
1762166283.9795258,-45.0,-20.0,-971.0,0,0,0,0.0,-1.2053115367889404,6.53203821182251
1762166284.080416,-41.0,46.0,-1004.0,0,0,0,0.0,-1.2053115367889404,6.53203821182251
1762166284.1806254,-51.0,3.0,-1013.0,0,0,0,0.0,-1.2053115367889404,6.53203821182251
1762166284.2810328,-46.0,1.0,-979.0,0,0,0,0.0,-1.2053115367889404,6.53203821182251
1762166284.381483,-46.0,1.0,-979.0,0,0,0,0.0,-1.2053115367889404,6.53203821182251
1762166284.4817417,-40.0,8.0,-1023.0,0,0,0,0.0,-1.2053115367889404,6.53203821182251
1762166284.5823529,-43.0,4.0,-1013.0,0,0,0,0.0,-1.2053115367889404,6.53203821182251
1762166284.6825862,-40.0,0.0,-1002.0,0,0,0,0.0,-1.2053115367889404,6.53203821182251
1762166284.7827506,-39.0,29.0,-937.0,0,0,0,0.0,-1.2053115367889404,6.53203821182251
1762166284.883382,-40.0,8.0,-971.0,0,0,0,0.0,-1.2053115367889404,6.53203821182251
1762166284.9836419,-44.0,26.0,-985.0,0,0,0,0.0,-1.2053115367889404,6.53203821182251
1762166285.084087,-28.0,-1.0,-997.0,0,0,0,0.0,-1.2053115367889404,6.53203821182251
1762166285.184531,-23.0,27.0,-1026.0,0,0,0,0.0,-1.2053115367889404,6.53203821182251
1762166285.2849252,-32.0,1.0,-1005.0,0,-1,0,0.0,-1.3057057857513428,6.53203821182251
1762166285.3853586,-37.0,9.0,-998.0,0,-1,0,0.0,-1.4061391353607178,6.53203821182251
1762166285.4859898,-20.0,12.0,-962.0,0,-1,0,0.0,-1.506770372390747,6.53203821182251
1762166285.5865293,-23.0,1.0,-995.0,0,-1,0,0.0,-1.6073098182678223,6.53203821182251
1762166285.6870906,-41.0,-1.0,-961.0,0,-1,0,0.0,-1.7078711986541748,6.53203821182251
1762166285.787814,-44.0,9.0,-935.0,0,-1,0,0.0,-1.8085944652557373,6.53203821182251
1762166285.8883514,-48.0,6.0,-991.0,0,-1,0,0.0,-1.9091320037841797,6.53203821182251
1762166285.9885836,-64.0,1.0,-976.0,0,-1,0,0.0,-2.009364128112793,6.53203821182251
1762166286.0889792,-29.0,-8.0,-973.0,0,0,0,0.0,-2.009364128112793,6.53203821182251
1762166286.1896064,-22.0,0.0,-992.0,0,0,0,0.0,-2.009364128112793,6.53203821182251
1762166286.2898276,-28.0,0.0,-995.0,0,0,0,0.0,-2.009364128112793,6.53203821182251
1762166286.3905613,-37.0,10.0,-985.0,0,0,0,0.0,-2.009364128112793,6.53203821182251
1762166286.4912388,-18.0,14.0,-988.0,1,0,0,0.100677490234375,-2.009364128112793,6.53203821182251
1762166286.5916073,-38.0,-14.0,-1065.0,1,0,0,0.20104598999023438,-2.009364128112793,6.53203821182251
1762166286.6921432,-46.0,-12.0,-1008.0,0,0,0,0.20104598999023438,-2.009364128112793,6.53203821182251
1762166286.7925544,-20.0,0.0,-1022.0,0,0,0,0.20104598999023438,-2.009364128112793,6.53203821182251
1762166286.8932512,-17.0,12.0,-1003.0,0,-1,0,0.20104598999023438,-2.110060930252075,6.53203821182251
1762166286.9939182,-30.0,-5.0,-1026.0,0,-1,0,0.20104598999023438,-2.2107279300689697,6.53203821182251
1762166287.0945876,-36.0,19.0,-1002.0,1,0,0,0.3017153739929199,-2.2107279300689697,6.53203821182251
1762166287.1948307,-21.0,-3.0,-1027.0,1,0,0,0.4019584655761719,-2.2107279300689697,6.53203821182251
1762166287.2950733,-33.0,4.0,-983.0,1,0,0,0.5022010803222656,-2.2107279300689697,6.53203821182251
1762166287.3958542,-44.0,18.0,-993.0,0,0,0,0.5022010803222656,-2.2107279300689697,6.53203821182251
1762166287.496277,-34.0,7.0,-1007.0,1,0,0,0.6026239395141602,-2.2107279300689697,6.53203821182251
1762166287.5970619,-57.0,1.0,-983.0,0,0,0,0.6026239395141602,-2.2107279300689697,6.53203821182251
1762166287.6977036,-28.0,-13.0,-1005.0,0,0,0,0.6026239395141602,-2.2107279300689697,6.53203821182251
1762166287.7979395,-29.0,18.0,-985.0,0,0,0,0.6026239395141602,-2.2107279300689697,6.53203821182251
1762166287.8986278,-15.0,-5.0,-1018.0,0,0,0,0.6026239395141602,-2.2107279300689697,6.53203821182251
1762166287.9989953,-39.0,7.0,-1027.0,0,0,0,0.6026239395141602,-2.2107279300689697,6.53203821182251
1762166288.099421,-25.0,12.0,-994.0,1,0,0,0.7030496597290039,-2.2107279300689697,6.53203821182251
1762166288.1998954,-5.0,0.0,-961.0,1,0,0,0.8035240173339844,-2.2107279300689697,6.53203821182251
1762166288.300042,-31.0,-7.0,-973.0,0,0,0,0.8035240173339844,-2.2107279300689697,6.53203821182251
1762166288.4002569,-37.0,-9.0,-1019.0,0,0,0,0.8035240173339844,-2.2107279300689697,6.53203821182251
1762166288.500517,-49.0,-10.0,-984.0,1,0,0,0.9037840366363525,-2.2107279300689697,6.53203821182251
1762166288.6011372,-48.0,-9.0,-992.0,1,0,0,1.0044043064117432,-2.2107279300689697,6.53203821182251
1762166288.7015104,-39.0,4.0,-992.0,0,0,0,1.0044043064117432,-2.2107279300689697,6.53203821182251
1762166288.8018477,-32.0,0.0,-997.0,0,0,0,1.0044043064117432,-2.2107279300689697,6.53203821182251
1762166288.9021997,-45.0,-12.0,-1009.0,0,0,0,1.0044043064117432,-2.2107279300689697,6.53203821182251
1762166289.0027916,-50.0,5.0,-981.0,0,0,0,1.0044043064117432,-2.2107279300689697,6.53203821182251
1762166289.103239,-47.0,-1.0,-1006.0,0,0,0,1.0044043064117432,-2.2107279300689697,6.53203821182251
1762166289.2037516,-56.0,4.0,-987.0,0,0,0,1.0044043064117432,-2.2107279300689697,6.53203821182251
1762166289.303974,-37.0,-2.0,-966.0,0,0,0,1.0044043064117432,-2.2107279300689697,6.53203821182251
1762166289.4047935,-25.0,-5.0,-971.0,1,0,0,1.1052238941192627,-2.2107279300689697,6.53203821182251
1762166289.5055568,-26.0,-6.0,-1005.0,0,0,0,1.1052238941192627,-2.2107279300689697,6.53203821182251
1762166289.6059346,-36.0,1.0,-997.0,0,0,0,1.1052238941192627,-2.2107279300689697,6.53203821182251
1762166289.706839,-27.0,1.0,-1016.0,1,0,0,1.2061283588409424,-2.2107279300689697,6.53203821182251
1762166289.8070989,-25.0,-3.0,-1001.0,1,0,0,1.3063881397247314,-2.2107279300689697,6.53203821182251
1762166289.9077084,-22.0,11.0,-1003.0,1,0,0,1.4069976806640625,-2.2107279300689697,6.53203821182251
1762166290.0084157,4.0,7.0,-982.0,0,0,0,1.4069976806640625,-2.2107279300689697,6.53203821182251
1762166290.108758,-17.0,11.0,-998.0,0,0,0,1.4069976806640625,-2.2107279300689697,6.53203821182251
1762166290.2090166,-37.0,0.0,-981.0,0,0,0,1.4069976806640625,-2.2107279300689697,6.53203821182251
1762166290.30948,-36.0,0.0,-1031.0,0,0,0,1.4069976806640625,-2.2107279300689697,6.53203821182251
1762166290.41041,-24.0,4.0,-1023.0,1,0,0,1.507927656173706,-2.2107279300689697,6.53203821182251
1762166290.510868,-25.0,11.0,-993.0,0,0,0,1.507927656173706,-2.2107279300689697,6.53203821182251
1762166290.6114423,-28.0,23.0,-1024.0,0,0,0,1.507927656173706,-2.2107279300689697,6.53203821182251
1762166290.7121718,-38.0,-19.0,-1073.0,0,0,0,1.507927656173706,-2.2107279300689697,6.53203821182251
1762166290.8125348,-26.0,5.0,-1001.0,0,0,0,1.507927656173706,-2.2107279300689697,6.53203821182251
1762166290.9132404,-42.0,0.0,-1023.0,1,0,0,1.608633279800415,-2.2107279300689697,6.53203821182251
1762166291.0135798,-33.0,7.0,-986.0,1,0,0,1.708972692489624,-2.2107279300689697,6.53203821182251
1762166291.1145544,-8.0,0.0,-977.0,1,0,0,1.8099472522735596,-2.2107279300689697,6.53203821182251
1762166291.2151942,-7.0,16.0,-941.0,0,0,0,1.8099472522735596,-2.2107279300689697,6.53203821182251
1762166291.3155835,3.0,-10.0,-967.0,0,0,0,1.8099472522735596,-2.2107279300689697,6.53203821182251
1762166291.4158583,-4.0,11.0,-985.0,0,0,0,1.8099472522735596,-2.2107279300689697,6.53203821182251
1762166291.5164287,-10.0,0.0,-985.0,0,0,0,1.8099472522735596,-2.2107279300689697,6.53203821182251
1762166291.61697,-2.0,6.0,-1008.0,0,0,0,1.8099472522735596,-2.2107279300689697,6.53203821182251
1762166291.717523,-3.0,13.0,-991.0,0,0,0,1.8099472522735596,-2.2107279300689697,6.53203821182251
1762166291.8179066,0.0,2.0,-1001.0,0,0,0,1.8099472522735596,-2.2107279300689697,6.53203821182251
1762166291.9180608,17.0,-7.0,-1008.0,0,0,0,1.8099472522735596,-2.2107279300689697,6.53203821182251
1762166292.0183642,-3.0,-5.0,-1015.0,0,0,0,1.8099472522735596,-2.2107279300689697,6.53203821182251
1762166292.1187427,8.0,5.0,-1009.0,0,0,0,1.8099472522735596,-2.2107279300689697,6.53203821182251
1762166292.219056,-6.0,6.0,-1029.0,0,0,0,1.8099472522735596,-2.2107279300689697,6.53203821182251
1762166292.319617,9.0,-15.0,-1024.0,0,0,0,1.8099472522735596,-2.2107279300689697,6.53203821182251
1762166292.4201925,-8.0,-9.0,-1016.0,0,0,0,1.8099472522735596,-2.2107279300689697,6.53203821182251
1762166292.5206344,13.0,13.0,-1010.0,0,0,0,1.8099472522735596,-2.2107279300689697,6.53203821182251
1762166292.620827,-14.0,0.0,-985.0,0,0,0,1.8099472522735596,-2.2107279300689697,6.53203821182251
1762166292.7210171,-21.0,-10.0,-976.0,0,0,0,1.8099472522735596,-2.2107279300689697,6.53203821182251
1762166292.8214645,-29.0,0.0,-946.0,0,0,0,1.8099472522735596,-2.2107279300689697,6.53203821182251
1762166292.9223158,-14.0,6.0,-977.0,0,0,0,1.8099472522735596,-2.2107279300689697,6.53203821182251
1762166293.0228992,5.0,9.0,-972.0,0,0,0,1.8099472522735596,-2.2107279300689697,6.53203821182251
1762166293.1230485,4.0,-1.0,-964.0,0,0,0,1.8099472522735596,-2.2107279300689697,6.53203821182251
1762166293.2236755,-4.0,-3.0,-984.0,0,0,0,1.8099472522735596,-2.2107279300689697,6.53203821182251
1762166293.3240006,3.0,-8.0,-987.0,0,0,0,1.8099472522735596,-2.2107279300689697,6.53203821182251
1762166293.4244664,-12.0,-7.0,-998.0,0,0,-1,1.8099472522735596,-2.2107279300689697,6.431572437286377
1762166293.5247447,-27.0,11.0,-1000.0,0,0,0,1.8099472522735596,-2.2107279300689697,6.431572437286377
1762166293.6252847,9.0,-13.0,-1016.0,0,0,0,1.8099472522735596,-2.2107279300689697,6.431572437286377
1762166293.7255535,-21.0,7.0,-1030.0,0,0,0,1.8099472522735596,-2.2107279300689697,6.431572437286377
1762166293.8256967,23.0,9.0,-1032.0,1,0,0,1.910090446472168,-2.2107279300689697,6.431572437286377
1762166293.926286,7.0,9.0,-1040.0,1,0,0,2.0106797218322754,-2.2107279300689697,6.431572437286377
1762166294.0265331,-17.0,6.0,-1025.0,1,0,0,2.110926866531372,-2.2107279300689697,6.431572437286377
1762166294.126918,6.0,-3.0,-1007.0,1,0,0,2.2113118171691895,-2.2107279300689697,6.431572437286377
1762166294.2276738,-11.0,2.0,-1031.0,0,0,0,2.2113118171691895,-2.2107279300689697,6.431572437286377
1762166294.3282652,-4.0,-12.0,-997.0,0,0,0,2.2113118171691895,-2.2107279300689697,6.431572437286377
1762166294.4286077,-16.0,31.0,-992.0,0,0,0,2.2113118171691895,-2.2107279300689697,6.431572437286377
1762166294.5287962,-15.0,1.0,-978.0,0,0,0,2.2113118171691895,-2.2107279300689697,6.431572437286377
1762166294.6290348,20.0,1.0,-1003.0,0,0,0,2.2113118171691895,-2.2107279300689697,6.431572437286377
1762166294.7296245,-17.0,-9.0,-980.0,0,0,0,2.2113118171691895,-2.2107279300689697,6.431572437286377
1762166294.8299894,-8.0,-27.0,-977.0,0,0,0,2.2113118171691895,-2.2107279300689697,6.431572437286377
1762166294.9307213,-14.0,0.0,-985.0,0,0,0,2.2113118171691895,-2.2107279300689697,6.431572437286377
1762166295.0310888,4.0,-13.0,-991.0,0,0,0,2.2113118171691895,-2.2107279300689697,6.431572437286377
1762166295.131242,-33.0,6.0,-999.0,0,0,0,2.2113118171691895,-2.2107279300689697,6.431572437286377
1762166295.231544,-9.0,-5.0,-988.0,0,0,0,2.2113118171691895,-2.2107279300689697,6.431572437286377
1762166295.3317661,-35.0,2.0,-994.0,0,0,0,2.2113118171691895,-2.2107279300689697,6.431572437286377
1762166295.432107,-25.0,1.0,-962.0,0,0,0,2.2113118171691895,-2.2107279300689697,6.431572437286377
1762166295.5326507,-28.0,-1.0,-1016.0,0,0,0,2.2113118171691895,-2.2107279300689697,6.431572437286377
1762166295.6330354,-26.0,30.0,-967.0,0,0,0,2.2113118171691895,-2.2107279300689697,6.431572437286377
1762166295.733198,-25.0,12.0,-1016.0,0,0,0,2.2113118171691895,-2.2107279300689697,6.431572437286377
1762166295.8334754,-1.0,12.0,-992.0,0,0,0,2.2113118171691895,-2.2107279300689697,6.431572437286377
1762166295.9336584,-48.0,5.0,-1005.0,0,0,0,2.2113118171691895,-2.2107279300689697,6.431572437286377
1762166296.0338428,1.0,8.0,-1001.0,0,0,0,2.2113118171691895,-2.2107279300689697,6.431572437286377
1762166296.1342363,-25.0,12.0,-1009.0,0,0,0,2.2113118171691895,-2.2107279300689697,6.431572437286377
1762166296.2349966,3.0,-8.0,-1005.0,0,0,0,2.2113118171691895,-2.2107279300689697,6.431572437286377
1762166296.3353422,0.0,3.0,-1016.0,0,0,0,2.2113118171691895,-2.2107279300689697,6.431572437286377
1762166296.435623,-43.0,20.0,-992.0,0,0,0,2.2113118171691895,-2.2107279300689697,6.431572437286377
1762166296.5358913,-27.0,13.0,-1035.0,0,0,0,2.2113118171691895,-2.2107279300689697,6.431572437286377
1762166296.6360383,-33.0,17.0,-1013.0,0,0,0,2.2113118171691895,-2.2107279300689697,6.431572437286377
1762166296.736764,-15.0,8.0,-1011.0,0,0,0,2.2113118171691895,-2.2107279300689697,6.431572437286377
1762166296.8375835,2.0,1.0,-979.0,0,0,0,2.2113118171691895,-2.2107279300689697,6.431572437286377
1762166296.9378748,-32.0,10.0,-1005.0,0,0,0,2.2113118171691895,-2.2107279300689697,6.431572437286377
1762166297.038174,-31.0,1.0,-998.0,0,0,0,2.2113118171691895,-2.2107279300689697,6.431572437286377
1762166297.1385741,-10.0,10.0,-999.0,0,0,0,2.2113118171691895,-2.2107279300689697,6.431572437286377
1762166297.238763,-9.0,-3.0,-995.0,0,0,0,2.2113118171691895,-2.2107279300689697,6.431572437286377
1762166297.3392115,-20.0,10.0,-973.0,0,0,0,2.2113118171691895,-2.2107279300689697,6.431572437286377
1762166297.4397454,-3.0,1.0,-998.0,0,0,0,2.2113118171691895,-2.2107279300689697,6.431572437286377
1762166297.540117,-19.0,3.0,-1002.0,0,0,0,2.2113118171691895,-2.2107279300689697,6.431572437286377
1762166297.6405363,-24.0,11.0,-1001.0,0,0,0,2.2113118171691895,-2.2107279300689697,6.431572437286377
1762166297.7409172,-8.0,13.0,-1001.0,0,0,0,2.2113118171691895,-2.2107279300689697,6.431572437286377
1762166297.841545,-8.0,20.0,-993.0,0,0,0,2.2113118171691895,-2.2107279300689697,6.431572437286377
1762166297.9421978,-2.0,19.0,-1019.0,0,0,0,2.2113118171691895,-2.2107279300689697,6.431572437286377
1762166298.0426755,-10.0,7.0,-975.0,0,0,0,2.2113118171691895,-2.2107279300689697,6.431572437286377
1762166298.1429377,-21.0,10.0,-1011.0,0,0,0,2.2113118171691895,-2.2107279300689697,6.431572437286377
1762166298.2436733,8.0,11.0,-994.0,0,0,0,2.2113118171691895,-2.2107279300689697,6.431572437286377
1762166298.3442414,0.0,15.0,-992.0,0,0,0,2.2113118171691895,-2.2107279300689697,6.431572437286377
1762166298.4443944,-5.0,18.0,-1004.0,0,0,0,2.2113118171691895,-2.2107279300689697,6.431572437286377
1762166298.544794,-14.0,11.0,-992.0,0,0,0,2.2113118171691895,-2.2107279300689697,6.431572437286377
1762166298.6462545,3.0,5.0,-1028.0,0,0,0,2.2113118171691895,-2.2107279300689697,6.431572437286377
1762166298.7465913,8.0,6.0,-983.0,0,0,0,2.2113118171691895,-2.2107279300689697,6.431572437286377
1762166298.8469062,-15.0,12.0,-1003.0,0,0,0,2.2113118171691895,-2.2107279300689697,6.431572437286377
1762166298.9474888,-4.0,20.0,-995.0,0,0,0,2.2113118171691895,-2.2107279300689697,6.431572437286377
1762166299.0476995,-10.0,2.0,-981.0,0,0,0,2.2113118171691895,-2.2107279300689697,6.431572437286377
1762166299.1483674,-6.0,18.0,-1015.0,0,0,0,2.2113118171691895,-2.2107279300689697,6.431572437286377
1762166299.2489502,-23.0,22.0,-1000.0,0,0,0,2.2113118171691895,-2.2107279300689697,6.431572437286377
1762166299.3491707,-17.0,17.0,-1025.0,0,0,0,2.2113118171691895,-2.2107279300689697,6.431572437286377
1762166299.449566,9.0,2.0,-1013.0,0,0,0,2.2113118171691895,-2.2107279300689697,6.431572437286377
1762166299.5497208,-18.0,5.0,-996.0,0,0,0,2.2113118171691895,-2.2107279300689697,6.431572437286377
1762166299.650368,-17.0,16.0,-1004.0,0,0,0,2.2113118171691895,-2.2107279300689697,6.431572437286377
1762166299.7507694,0.0,16.0,-1003.0,0,0,0,2.2113118171691895,-2.2107279300689697,6.431572437286377
1762166299.8515522,-23.0,12.0,-991.0,0,0,0,2.2113118171691895,-2.2107279300689697,6.431572437286377
1762166299.9519942,-8.0,0.0,-1000.0,0,0,0,2.2113118171691895,-2.2107279300689697,6.431572437286377
1762166300.0524416,1.0,10.0,-975.0,0,0,0,2.2113118171691895,-2.2107279300689697,6.431572437286377
1762166300.152616,5.0,2.0,-990.0,0,0,0,2.2113118171691895,-2.2107279300689697,6.431572437286377
1762166300.252814,-17.0,16.0,-1001.0,0,0,0,2.2113118171691895,-2.2107279300689697,6.431572437286377
1762166300.3530457,12.0,3.0,-997.0,0,0,0,2.2113118171691895,-2.2107279300689697,6.431572437286377
1762166300.4535508,4.0,1.0,-992.0,0,0,0,2.2113118171691895,-2.2107279300689697,6.431572437286377
1762166300.553897,-1.0,-3.0,-993.0,0,0,0,2.2113118171691895,-2.2107279300689697,6.431572437286377
1762166300.6542835,6.0,0.0,-1005.0,0,0,0,2.2113118171691895,-2.2107279300689697,6.431572437286377
1762166300.7544215,6.0,0.0,-1005.0,0,0,0,2.2113118171691895,-2.2107279300689697,6.431572437286377
1762166300.8550575,-8.0,9.0,-1012.0,0,0,0,2.2113118171691895,-2.2107279300689697,6.431572437286377
1762166300.9555426,-4.0,10.0,-986.0,0,0,0,2.2113118171691895,-2.2107279300689697,6.431572437286377
1762166301.0557444,-4.0,0.0,-999.0,0,0,0,2.2113118171691895,-2.2107279300689697,6.431572437286377
1762166301.1561382,-4.0,0.0,-999.0,0,0,0,2.2113118171691895,-2.2107279300689697,6.431572437286377
1762166301.2567713,17.0,-4.0,-1003.0,0,0,0,2.2113118171691895,-2.2107279300689697,6.431572437286377
1762166301.3570187,-5.0,11.0,-999.0,0,0,0,2.2113118171691895,-2.2107279300689697,6.431572437286377
1762166301.4575877,-7.0,2.0,-998.0,0,0,0,2.2113118171691895,-2.2107279300689697,6.431572437286377
1762166301.5578334,-5.0,4.0,-1016.0,0,0,0,2.2113118171691895,-2.2107279300689697,6.431572437286377
1762166301.658367,0.0,-1.0,-992.0,0,0,0,2.2113118171691895,-2.2107279300689697,6.431572437286377
1762166301.758794,-3.0,-1.0,-986.0,0,0,0,2.2113118171691895,-2.2107279300689697,6.431572437286377
1762166301.8590913,12.0,10.0,-999.0,0,0,0,2.2113118171691895,-2.2107279300689697,6.431572437286377
1762166301.9594402,-13.0,4.0,-1003.0,0,0,0,2.2113118171691895,-2.2107279300689697,6.431572437286377
1762166302.0596704,-16.0,6.0,-969.0,0,0,0,2.2113118171691895,-2.2107279300689697,6.431572437286377
1762166302.1599607,-22.0,9.0,-976.0,0,0,0,2.2113118171691895,-2.2107279300689697,6.431572437286377
1762166302.2605038,-17.0,-1.0,-974.0,0,0,0,2.2113118171691895,-2.2107279300689697,6.431572437286377
1762166302.3612988,-18.0,0.0,-1019.0,0,0,0,2.2113118171691895,-2.2107279300689697,6.431572437286377
1762166302.4620256,0.0,-6.0,-993.0,0,0,0,2.2113118171691895,-2.2107279300689697,6.431572437286377
1762166302.563722,-22.0,1.0,-1000.0,0,0,0,2.2113118171691895,-2.2107279300689697,6.431572437286377
1762166302.664426,-14.0,-1.0,-1016.0,0,0,0,2.2113118171691895,-2.2107279300689697,6.431572437286377
1762166302.7645814,-15.0,12.0,-1010.0,0,0,0,2.2113118171691895,-2.2107279300689697,6.431572437286377
1762166302.8651276,-28.0,-5.0,-987.0,0,0,0,2.2113118171691895,-2.2107279300689697,6.431572437286377
1762166302.965409,-20.0,-11.0,-969.0,0,0,0,2.2113118171691895,-2.2107279300689697,6.431572437286377
1762166303.0658717,-15.0,-8.0,-989.0,0,0,0,2.2113118171691895,-2.2107279300689697,6.431572437286377
1762166303.1665227,-30.0,4.0,-1006.0,0,0,0,2.2113118171691895,-2.2107279300689697,6.431572437286377
1762166303.267081,-19.0,1.0,-1004.0,0,0,0,2.2113118171691895,-2.2107279300689697,6.431572437286377
1762166303.3674874,-11.0,-5.0,-1019.0,0,0,0,2.2113118171691895,-2.2107279300689697,6.431572437286377
1762166303.4682705,10.0,0.0,-997.0,0,0,0,2.2113118171691895,-2.2107279300689697,6.431572437286377
1762166303.5688155,-13.0,0.0,-1017.0,0,0,0,2.2113118171691895,-2.2107279300689697,6.431572437286377
1762166303.6692276,0.0,6.0,-1000.0,0,0,0,2.2113118171691895,-2.2107279300689697,6.431572437286377
1762166303.7694702,-3.0,-4.0,-1013.0,0,0,0,2.2113118171691895,-2.2107279300689697,6.431572437286377
1762166303.869862,-10.0,35.0,-1010.0,0,0,0,2.2113118171691895,-2.2107279300689697,6.431572437286377
1762166303.9700572,14.0,16.0,-974.0,0,0,0,2.2113118171691895,-2.2107279300689697,6.431572437286377
1762166304.0706227,4.0,9.0,-981.0,0,0,0,2.2113118171691895,-2.2107279300689697,6.431572437286377
1762166304.1710284,9.0,8.0,-1010.0,0,0,0,2.2113118171691895,-2.2107279300689697,6.431572437286377
1762166304.2711647,9.0,8.0,-1010.0,0,0,0,2.2113118171691895,-2.2107279300689697,6.431572437286377
1762166304.3717148,14.0,-12.0,-1005.0,0,0,0,2.2113118171691895,-2.2107279300689697,6.431572437286377
1762166304.471902,-1.0,5.0,-1012.0,0,0,0,2.2113118171691895,-2.2107279300689697,6.431572437286377
1762166304.5722156,-1.0,5.0,-1012.0,0,0,0,2.2113118171691895,-2.2107279300689697,6.431572437286377
1762166304.672791,-24.0,13.0,-981.0,0,0,0,2.2113118171691895,-2.2107279300689697,6.431572437286377
1762166304.7734766,-14.0,15.0,-1008.0,0,0,0,2.2113118171691895,-2.2107279300689697,6.431572437286377
1762166304.8738163,-16.0,6.0,-1009.0,0,0,0,2.2113118171691895,-2.2107279300689697,6.431572437286377
1762166304.974485,-7.0,8.0,-988.0,0,0,0,2.2113118171691895,-2.2107279300689697,6.431572437286377
1762166305.0748358,-15.0,10.0,-995.0,0,0,0,2.2113118171691895,-2.2107279300689697,6.431572437286377
1762166305.175031,15.0,10.0,-998.0,0,0,0,2.2113118171691895,-2.2107279300689697,6.431572437286377
1762166305.275929,5.0,-9.0,-998.0,0,0,0,2.2113118171691895,-2.2107279300689697,6.431572437286377
1762166305.3763251,-6.0,12.0,-1009.0,0,0,0,2.2113118171691895,-2.2107279300689697,6.431572437286377
1762166305.4769244,-17.0,7.0,-999.0,0,0,0,2.2113118171691895,-2.2107279300689697,6.431572437286377
1762166305.5776384,6.0,-1.0,-1009.0,0,1,0,2.2113118171691895,-2.110013961791992,6.431572437286377
1762166305.678339,-7.0,24.0,-971.0,0,1,0,2.2113118171691895,-2.0093133449554443,6.431572437286377
1762166305.7791467,0.0,0.0,-973.0,0,1,0,2.2113118171691895,-1.9085056781768799,6.431572437286377
1762166305.8797615,5.0,4.0,-1008.0,0,1,0,2.2113118171691895,-1.8078908920288086,6.431572437286377
1762166305.9802816,3.0,7.0,-984.0,0,1,0,2.2113118171691895,-1.7073707580566406,6.431572437286377
1762166306.0809617,-6.0,-1.0,-975.0,0,1,0,2.2113118171691895,-1.6066906452178955,6.431572437286377
1762166306.1811583,1.0,-3.0,-991.0,0,1,0,2.2113118171691895,-1.5064940452575684,6.431572437286377
1762166306.2814236,4.0,0.0,-997.0,0,1,0,2.2113118171691895,-1.40622878074646,6.431572437286377
1762166306.3822484,0.0,11.0,-1007.0,0,1,0,2.2113118171691895,-1.3054039478302002,6.431572437286377
1762166306.4830031,0.0,6.0,-1020.0,0,1,0,2.2113118171691895,-1.2046492099761963,6.431572437286377
1762166306.5834804,-7.0,-10.0,-1029.0,0,1,0,2.2113118171691895,-1.1041719913482666,6.431572437286377
1762166306.6838446,-17.0,2.0,-1007.0,0,1,0,2.2113118171691895,-1.003807783126831,6.431572437286377
1762166306.7841468,5.0,2.0,-1032.0,0,1,0,2.2113118171691895,-0.9035055637359619,6.431572437286377
1762166306.8847582,9.0,20.0,-1030.0,0,1,0,2.2113118171691895,-0.802894115447998,6.431572437286377
1762166306.9856918,-10.0,8.0,-1013.0,0,1,0,2.2113118171691895,-0.701960563659668,6.431572437286377
1762166307.086494,4.0,-6.0,-1010.0,0,1,0,2.2113118171691895,-0.6011583805084229,6.431572437286377
1762166307.186717,-7.0,-4.0,-1011.0,0,1,0,2.2113118171691895,-0.5009353160858154,6.431572437286377
1762166307.2869856,-21.0,9.0,-990.0,0,1,0,2.2113118171691895,-0.4006667137145996,6.431572437286377
1762166307.3875093,-9.0,7.0,-973.0,0,1,0,2.2113118171691895,-0.3001430034637451,6.431572437286377
1762166307.4882417,-8.0,6.0,-967.0,0,1,0,2.2113118171691895,-0.19941067695617676,6.431572437286377
1762166307.5888033,-5.0,1.0,-966.0,0,1,0,2.2113118171691895,-0.09884905815124512,6.431572437286377
1762166307.6895864,7.0,5.0,-986.0,0,1,0,2.2113118171691895,0.001934051513671875,6.431572437286377
1762166307.7899518,0.0,1.0,-981.0,0,1,0,2.2113118171691895,0.10229945182800293,6.431572437286377
1762166307.8902738,7.0,13.0,-981.0,0,0,0,2.2113118171691895,0.10229945182800293,6.431572437286377
1762166307.9905546,4.0,2.0,-987.0,0,0,0,2.2113118171691895,0.10229945182800293,6.431572437286377
1762166308.0912511,-3.0,8.0,-984.0,0,0,0,2.2113118171691895,0.10229945182800293,6.431572437286377
1762166308.1918156,-3.0,8.0,-984.0,0,0,0,2.2113118171691895,0.10229945182800293,6.431572437286377
1762166308.2920728,-6.0,11.0,-987.0,0,0,0,2.2113118171691895,0.10229945182800293,6.431572437286377
1762166308.394331,10.0,1.0,-1021.0,0,0,0,2.2113118171691895,0.10229945182800293,6.431572437286377
1762166308.4947321,3.0,23.0,-1020.0,0,0,0,2.2113118171691895,0.10229945182800293,6.431572437286377
1762166308.5955153,1.0,17.0,-1016.0,0,0,0,2.2113118171691895,0.10229945182800293,6.431572437286377
1762166308.6962981,0.0,3.0,-1013.0,0,1,0,2.2113118171691895,0.20308232307434082,6.431572437286377
1762166308.7965193,-8.0,21.0,-1013.0,0,1,0,2.2113118171691895,0.30330348014831543,6.431572437286377
1762166308.8968568,-17.0,22.0,-1008.0,0,1,0,2.2113118171691895,0.4036409854888916,6.431572437286377
1762166308.997283,27.0,7.0,-1013.0,0,1,0,2.2113118171691895,0.5040671825408936,6.431572437286377
1762166309.0976408,6.0,1.0,-995.0,0,1,0,2.2113118171691895,0.6044249534606934,6.431572437286377
1762166309.198313,-2.0,9.0,-1028.0,0,1,0,2.2113118171691895,0.7050971984863281,6.431572437286377
1762166309.2987442,0.0,13.0,-1018.0,0,1,0,2.2113118171691895,0.8055284023284912,6.431572437286377
1762166309.3993895,0.0,-16.0,-999.0,0,0,0,2.2113118171691895,0.8055284023284912,6.431572437286377
1762166309.502698,31.0,4.0,-1002.0,0,0,0,2.2113118171691895,0.8055284023284912,6.431572437286377
1762166309.6032903,28.0,0.0,-984.0,0,1,0,2.2113118171691895,0.906120777130127,6.431572437286377
1762166309.7040484,7.0,47.0,-1007.0,0,1,0,2.2113118171691895,1.0068788528442383,6.431572437286377
1762166309.804551,-14.0,14.0,-1006.0,0,0,0,2.2113118171691895,1.0068788528442383,6.431572437286377
1762166309.9050012,-2.0,12.0,-1031.0,0,0,0,2.2113118171691895,1.0068788528442383,6.431572437286377
1762166310.0051963,4.0,13.0,-994.0,0,0,0,2.2113118171691895,1.0068788528442383,6.431572437286377
1762166310.1060214,9.0,-8.0,-983.0,0,0,0,2.2113118171691895,1.0068788528442383,6.431572437286377
1762166310.2064357,14.0,-3.0,-982.0,0,0,0,2.2113118171691895,1.0068788528442383,6.431572437286377
1762166310.3066442,18.0,-3.0,-979.0,0,0,0,2.2113118171691895,1.0068788528442383,6.431572437286377
1762166310.4072208,0.0,2.0,-984.0,0,0,0,2.2113118171691895,1.0068788528442383,6.431572437286377
1762166310.5077655,-5.0,12.0,-947.0,0,0,0,2.2113118171691895,1.0068788528442383,6.431572437286377
1762166310.6080666,3.0,-12.0,-991.0,0,0,0,2.2113118171691895,1.0068788528442383,6.431572437286377
1762166310.7082887,25.0,8.0,-1002.0,0,0,0,2.2113118171691895,1.0068788528442383,6.431572437286377
1762166310.8089423,-9.0,4.0,-987.0,0,0,0,2.2113118171691895,1.0068788528442383,6.431572437286377
1762166310.9092164,6.0,4.0,-995.0,0,0,0,2.2113118171691895,1.0068788528442383,6.431572437286377
1762166311.0095584,0.0,13.0,-1034.0,0,1,0,2.2113118171691895,1.1072208881378174,6.431572437286377
1762166311.1099596,25.0,13.0,-1019.0,0,1,0,2.2113118171691895,1.2076220512390137,6.431572437286377
1762166311.210293,14.0,30.0,-1027.0,0,1,0,2.2113118171691895,1.3079555034637451,6.431572437286377
1762166311.3109865,15.0,22.0,-1009.0,0,1,0,2.2113118171691895,1.40864896774292,6.431572437286377
1762166311.411537,-6.0,12.0,-1000.0,0,1,0,2.2113118171691895,1.5091993808746338,6.431572437286377
1762166311.51205,-16.0,29.0,-985.0,0,1,0,2.2113118171691895,1.6097123622894287,6.431572437286377
1762166311.612371,-36.0,34.0,-985.0,0,0,0,2.2113118171691895,1.6097123622894287,6.431572437286377
1762166311.712679,9.0,36.0,-973.0,0,1,0,2.2113118171691895,1.7100203037261963,6.431572437286377
1762166311.812945,-14.0,-7.0,-967.0,0,0,0,2.2113118171691895,1.7100203037261963,6.431572437286377
1762166311.9132495,-24.0,-18.0,-1035.0,0,0,0,2.2113118171691895,1.7100203037261963,6.431572437286377
1762166312.0136125,-20.0,-5.0,-1005.0,-1,0,0,2.1109488010406494,1.7100203037261963,6.431572437286377
1762166312.1145093,-6.0,-2.0,-992.0,-1,0,0,2.010051965713501,1.7100203037261963,6.431572437286377
1762166312.2150261,-24.0,-18.0,-1013.0,-1,1,0,1.9095351696014404,1.8105370998382568,6.431572437286377
1762166312.31572,12.0,11.0,-985.0,-1,1,0,1.8088412284851074,1.9112310409545898,6.431572437286377
1762166312.415916,-18.0,6.0,-988.0,-1,1,0,1.7086453437805176,2.0114269256591797,6.431572437286377
1762166312.5161645,-10.0,6.0,-995.0,0,1,0,1.7086453437805176,2.111675500869751,6.431572437286377
1762166312.6165068,-24.0,30.0,-986.0,0,1,0,1.7086453437805176,2.212017774581909,6.431572437286377
1762166312.7167406,-14.0,22.0,-1001.0,0,0,0,1.7086453437805176,2.212017774581909,6.431572437286377
1762166312.817216,-5.0,14.0,-964.0,0,0,0,1.7086453437805176,2.212017774581909,6.431572437286377
1762166312.917889,32.0,-10.0,-966.0,0,0,0,1.7086453437805176,2.212017774581909,6.431572437286377
1762166313.018127,5.0,-6.0,-987.0,0,0,0,1.7086453437805176,2.212017774581909,6.431572437286377
1762166313.118552,-35.0,36.0,-1035.0,0,0,0,1.7086453437805176,2.212017774581909,6.431572437286377
1762166313.2188547,-34.0,0.0,-1023.0,0,0,0,1.7086453437805176,2.212017774581909,6.431572437286377
1762166313.319166,-32.0,3.0,-1017.0,-1,0,0,1.6083340644836426,2.212017774581909,6.431572437286377
1762166313.4195452,-33.0,-4.0,-1040.0,-1,0,0,1.5079548358917236,2.212017774581909,6.431572437286377
1762166313.520928,-16.0,10.0,-1004.0,-1,0,0,1.4065721035003662,2.212017774581909,6.431572437286377
1762166313.621066,-4.0,0.0,-1013.0,-1,0,0,1.306433916091919,2.212017774581909,6.431572437286377
1762166313.7213888,-37.0,6.0,-1012.0,-1,0,0,1.206111192703247,2.212017774581909,6.431572437286377
1762166313.8222384,-4.0,0.0,-975.0,-1,0,0,1.1052615642547607,2.212017774581909,6.431572437286377
1762166313.9227064,-22.0,-12.0,-1024.0,-1,0,0,1.004793643951416,2.212017774581909,6.431572437286377
1762166314.023184,-42.0,-5.0,-1019.0,-1,0,0,0.9043159484863281,2.212017774581909,6.431572437286377
1762166314.1234815,-47.0,-18.0,-1021.0,-1,0,0,0.804018497467041,2.212017774581909,6.431572437286377
1762166314.2238464,-51.0,-19.0,-1009.0,-1,0,0,0.7036535739898682,2.212017774581909,6.431572437286377
1762166314.324355,-39.0,-17.0,-968.0,-1,0,0,0.6031451225280762,2.212017774581909,6.431572437286377
1762166314.4250865,-34.0,-13.0,-1007.0,-1,0,0,0.5024135112762451,2.212017774581909,6.431572437286377
1762166314.5255067,-38.0,-15.0,-993.0,-1,0,0,0.4019932746887207,2.212017774581909,6.431572437286377
1762166314.6256769,-39.0,-12.0,-1026.0,-1,0,0,0.30182313919067383,2.212017774581909,6.431572437286377
1762166314.7258961,-41.0,12.0,-983.0,-1,0,0,0.20160388946533203,2.212017774581909,6.431572437286377
1762166314.8262033,-12.0,-15.0,-996.0,0,0,0,0.20160388946533203,2.212017774581909,6.431572437286377
1762166314.926588,-18.0,4.0,-979.0,-1,0,0,0.10121917724609375,2.212017774581909,6.431572437286377
1762166315.0275402,-32.0,3.0,-990.0,-1,0,0,0.00026702880859375,2.212017774581909,6.431572437286377
1762166315.1284032,-34.0,23.0,-1015.0,0,0,0,0.00026702880859375,2.212017774581909,6.431572437286377
1762166315.2285488,-34.0,17.0,-1005.0,0,0,0,0.00026702880859375,2.212017774581909,6.431572437286377
1762166315.3289444,-23.0,-18.0,-1021.0,0,0,0,0.00026702880859375,2.212017774581909,6.431572437286377
1762166315.4296668,-36.0,38.0,-1017.0,0,0,0,0.00026702880859375,2.212017774581909,6.431572437286377
1762166315.52987,-42.0,32.0,-1012.0,0,0,0,0.00026702880859375,2.212017774581909,6.431572437286377
1762166315.6304374,-23.0,-8.0,-1008.0,0,0,0,0.00026702880859375,2.212017774581909,6.431572437286377
1762166315.7310224,-36.0,-14.0,-1041.0,0,0,0,0.00026702880859375,2.212017774581909,6.431572437286377
1762166315.8314562,-45.0,6.0,-997.0,0,0,0,0.00026702880859375,2.212017774581909,6.431572437286377
1762166315.931624,-17.0,-5.0,-1039.0,-1,0,0,-0.09990072250366211,2.212017774581909,6.431572437286377
1762166316.0320117,-10.0,-2.0,-996.0,-1,0,0,-0.2002885341644287,2.212017774581909,6.431572437286377
1762166316.1326022,-30.0,9.0,-962.0,-1,0,0,-0.30087900161743164,2.212017774581909,6.431572437286377
1762166316.2329724,-28.0,11.0,-988.0,-1,0,0,-0.4012491703033447,2.212017774581909,6.431572437286377
1762166316.3333504,-35.0,3.0,-992.0,-1,0,0,-0.5016272068023682,2.212017774581909,6.431572437286377
1762166316.433649,-13.0,28.0,-987.0,-1,0,0,-0.6019258499145508,2.212017774581909,6.431572437286377
1762166316.5338433,-36.0,11.0,-1008.0,0,0,0,-0.6019258499145508,2.212017774581909,6.431572437286377
1762166316.6341624,-36.0,0.0,-983.0,0,0,0,-0.6019258499145508,2.212017774581909,6.431572437286377
1762166316.734638,-21.0,3.0,-992.0,0,0,0,-0.6019258499145508,2.212017774581909,6.431572437286377
1762166316.834972,-51.0,18.0,-1008.0,0,0,0,-0.6019258499145508,2.212017774581909,6.431572437286377
1762166316.9356315,-21.0,-3.0,-1015.0,0,0,0,-0.6019258499145508,2.212017774581909,6.431572437286377
1762166317.0359266,-12.0,6.0,-1019.0,0,0,0,-0.6019258499145508,2.212017774581909,6.431572437286377
1762166317.1360762,-30.0,36.0,-1008.0,0,0,0,-0.6019258499145508,2.212017774581909,6.431572437286377
1762166317.2362669,-27.0,14.0,-1002.0,0,0,0,-0.6019258499145508,2.212017774581909,6.431572437286377
1762166317.3365095,-13.0,24.0,-1022.0,0,0,0,-0.6019258499145508,2.212017774581909,6.431572437286377
1762166317.4371252,-8.0,18.0,-1001.0,0,0,0,-0.6019258499145508,2.212017774581909,6.431572437286377
1762166317.5373318,-24.0,31.0,-1011.0,0,0,0,-0.6019258499145508,2.212017774581909,6.431572437286377
1762166317.6378026,-31.0,41.0,-1023.0,0,0,0,-0.6019258499145508,2.212017774581909,6.431572437286377
1762166317.7384093,-1.0,35.0,-991.0,0,0,0,-0.6019258499145508,2.212017774581909,6.431572437286377
1762166317.8385682,12.0,17.0,-980.0,0,0,0,-0.6019258499145508,2.212017774581909,6.431572437286377
1762166317.9388306,-8.0,9.0,-1005.0,0,0,0,-0.6019258499145508,2.212017774581909,6.431572437286377
1762166318.0391676,-3.0,11.0,-985.0,0,0,0,-0.6019258499145508,2.212017774581909,6.431572437286377
1762166318.139462,-3.0,11.0,-985.0,0,0,0,-0.6019258499145508,2.212017774581909,6.431572437286377
1762166318.2402458,-32.0,29.0,-982.0,-1,0,0,-0.7027096748352051,2.212017774581909,6.431572437286377
1762166318.3409867,-3.0,19.0,-986.0,-1,0,0,-0.8034505844116211,2.212017774581909,6.431572437286377
1762166318.4411383,-4.0,19.0,-1007.0,-1,0,0,-0.903602123260498,2.212017774581909,6.431572437286377
1762166318.5419247,-2.0,22.0,-990.0,-1,0,0,-1.0043885707855225,2.212017774581909,6.431572437286377
1762166318.642189,-8.0,17.0,-1001.0,-1,0,0,-1.1046528816223145,2.212017774581909,6.431572437286377
1762166318.7423732,-3.0,23.0,-1019.0,-1,0,0,-1.2048370838165283,2.212017774581909,6.431572437286377
1762166318.8429737,7.0,-3.0,-999.0,-1,0,0,-1.3054375648498535,2.212017774581909,6.431572437286377
1762166318.9437244,-15.0,21.0,-987.0,-1,0,0,-1.4061882495880127,2.212017774581909,6.431572437286377
1762166319.0444758,15.0,3.0,-990.0,-1,0,0,-1.5069396495819092,2.212017774581909,6.431572437286377
1762166319.145116,-14.0,10.0,-986.0,-1,0,0,-1.6075799465179443,2.212017774581909,6.431572437286377
1762166319.2452667,0.0,28.0,-980.0,-1,-1,0,-1.7077305316925049,2.1118671894073486,6.431572437286377
1762166319.346143,-5.0,3.0,-993.0,-1,-1,0,-1.8086068630218506,2.010990858078003,6.431572437286377
1762166319.4467893,-8.0,19.0,-1011.0,-1,-1,0,-1.9092531204223633,1.9103446006774902,6.431572437286377
1762166319.5473285,-3.0,0.0,-974.0,-1,-1,0,-2.0097923278808594,1.8098053932189941,6.431572437286377
1762166319.6475334,0.0,4.0,-998.0,-1,0,0,-2.109997272491455,1.8098053932189941,6.431572437286377
1762166319.7481763,5.0,8.0,-1008.0,-1,-1,0,-2.2106401920318604,1.7091624736785889,6.431572437286377
1762166319.8485026,-12.0,10.0,-986.0,-1,-1,0,-2.3109664916992188,1.6088361740112305,6.431572437286377
1762166319.9489048,-1.0,15.0,-1004.0,-1,-1,0,-2.4113686084747314,1.5084340572357178,6.431572437286377
1762166320.0492487,-17.0,9.0,-1007.0,-1,-1,0,-2.5117125511169434,1.4080901145935059,6.431572437286377
1762166320.1496744,6.0,-19.0,-981.0,-1,0,0,-2.612138271331787,1.4080901145935059,6.431572437286377
1762166320.250158,5.0,11.0,-1001.0,0,0,0,-2.612138271331787,1.4080901145935059,6.431572437286377
1762166320.3508039,-27.0,1.0,-989.0,0,0,0,-2.612138271331787,1.4080901145935059,6.431572437286377
1762166320.451058,-1.0,-6.0,-1018.0,0,0,0,-2.612138271331787,1.4080901145935059,6.431572437286377
1762166320.5516062,-11.0,0.0,-1013.0,0,0,0,-2.612138271331787,1.4080901145935059,6.431572437286377
1762166320.6519604,-19.0,0.0,-1004.0,0,0,0,-2.612138271331787,1.4080901145935059,6.431572437286377
1762166320.7525783,-30.0,0.0,-994.0,0,0,0,-2.612138271331787,1.4080901145935059,6.431572437286377
1762166320.8532467,-5.0,-3.0,-994.0,0,0,0,-2.612138271331787,1.4080901145935059,6.431572437286377
1762166320.9534109,-11.0,-8.0,-1003.0,0,0,0,-2.612138271331787,1.4080901145935059,6.431572437286377
1762166321.0538163,-10.0,3.0,-991.0,0,0,0,-2.612138271331787,1.4080901145935059,6.431572437286377
1762166321.1541505,-6.0,-5.0,-1003.0,0,0,0,-2.612138271331787,1.4080901145935059,6.431572437286377
1762166321.2544029,15.0,-22.0,-999.0,0,0,0,-2.612138271331787,1.4080901145935059,6.431572437286377
1762166321.3551145,-19.0,-13.0,-1003.0,0,0,0,-2.612138271331787,1.4080901145935059,6.431572437286377
1762166321.4552438,-12.0,-7.0,-985.0,0,0,0,-2.612138271331787,1.4080901145935059,6.431572437286377
1762166321.5554097,-12.0,-7.0,-985.0,0,0,0,-2.612138271331787,1.4080901145935059,6.431572437286377
1762166321.6556137,0.0,-18.0,-983.0,0,0,0,-2.612138271331787,1.4080901145935059,6.431572437286377
1762166321.7560034,0.0,-3.0,-1016.0,0,0,0,-2.612138271331787,1.4080901145935059,6.431572437286377
1762166321.8565505,1.0,2.0,-993.0,0,0,0,-2.612138271331787,1.4080901145935059,6.431572437286377
1762166321.9571166,-3.0,12.0,-1021.0,0,0,0,-2.612138271331787,1.4080901145935059,6.431572437286377
1762166322.0574348,13.0,6.0,-991.0,0,0,0,-2.612138271331787,1.4080901145935059,6.431572437286377
1762166322.157712,-7.0,6.0,-967.0,0,0,0,-2.612138271331787,1.4080901145935059,6.431572437286377
1762166322.2580035,-25.0,6.0,-963.0,0,0,0,-2.612138271331787,1.4080901145935059,6.431572437286377
1762166322.358198,-12.0,5.0,-985.0,0,0,0,-2.612138271331787,1.4080901145935059,6.431572437286377
1762166322.458959,3.0,7.0,-1001.0,0,0,0,-2.612138271331787,1.4080901145935059,6.431572437286377
1762166322.5594795,13.0,2.0,-983.0,0,0,0,-2.612138271331787,1.4080901145935059,6.431572437286377
1762166322.6599383,-12.0,-5.0,-1054.0,0,0,0,-2.612138271331787,1.4080901145935059,6.431572437286377
1762166322.7600818,-18.0,8.0,-1030.0,0,0,0,-2.612138271331787,1.4080901145935059,6.431572437286377
1762166322.8602326,6.0,-14.0,-979.0,0,0,0,-2.612138271331787,1.4080901145935059,6.431572437286377
1762166322.9607527,-12.0,4.0,-996.0,0,0,0,-2.612138271331787,1.4080901145935059,6.431572437286377
1762166323.0613596,-26.0,8.0,-1002.0,0,0,0,-2.612138271331787,1.4080901145935059,6.431572437286377
1762166323.1618996,-27.0,16.0,-996.0,0,0,0,-2.612138271331787,1.4080901145935059,6.431572437286377
1762166323.2625504,-17.0,3.0,-985.0,0,0,0,-2.612138271331787,1.4080901145935059,6.431572437286377
1762166323.3627086,2.0,-7.0,-1012.0,0,0,0,-2.612138271331787,1.4080901145935059,6.431572437286377
1762166323.4631732,-24.0,-19.0,-1046.0,0,0,0,-2.612138271331787,1.4080901145935059,6.431572437286377
1762166323.5633836,-46.0,2.0,-1011.0,0,0,0,-2.612138271331787,1.4080901145935059,6.431572437286377
1762166323.6636398,-29.0,8.0,-1007.0,0,0,0,-2.612138271331787,1.4080901145935059,6.431572437286377
1762166323.7646902,7.0,8.0,-967.0,0,0,0,-2.612138271331787,1.4080901145935059,6.431572437286377
1762166323.865479,-9.0,9.0,-976.0,0,0,0,-2.612138271331787,1.4080901145935059,6.431572437286377
1762166323.9657652,-28.0,-2.0,-971.0,0,0,0,-2.612138271331787,1.4080901145935059,6.431572437286377
1762166324.066008,-36.0,18.0,-995.0,0,0,0,-2.612138271331787,1.4080901145935059,6.431572437286377
1762166324.1663604,-29.0,-14.0,-1021.0,0,0,0,-2.612138271331787,1.4080901145935059,6.431572437286377
1762166324.2668493,-10.0,1.0,-996.0,0,0,0,-2.612138271331787,1.4080901145935059,6.431572437286377
1762166324.3673618,-13.0,-17.0,-1011.0,0,0,0,-2.612138271331787,1.4080901145935059,6.431572437286377
1762166324.4679232,14.0,-12.0,-972.0,0,0,0,-2.612138271331787,1.4080901145935059,6.431572437286377
1762166324.5680895,-19.0,-10.0,-1006.0,0,0,0,-2.612138271331787,1.4080901145935059,6.431572437286377
1762166324.6683462,-19.0,-10.0,-1006.0,0,0,0,-2.612138271331787,1.4080901145935059,6.431572437286377
1762166324.7691514,-43.0,12.0,-1002.0,0,0,0,-2.612138271331787,1.4080901145935059,6.431572437286377
1762166324.8694184,-43.0,12.0,-1002.0,0,0,0,-2.612138271331787,1.4080901145935059,6.431572437286377
1762166324.970185,-35.0,18.0,-1016.0,0,0,0,-2.612138271331787,1.4080901145935059,6.431572437286377
1762166325.071035,-22.0,9.0,-1010.0,0,0,0,-2.612138271331787,1.4080901145935059,6.431572437286377
1762166325.17119,-24.0,-8.0,-979.0,0,0,0,-2.612138271331787,1.4080901145935059,6.431572437286377
1762166325.2714458,-21.0,0.0,-1006.0,0,0,0,-2.612138271331787,1.4080901145935059,6.431572437286377
1762166325.3722785,5.0,0.0,-1015.0,0,0,0,-2.612138271331787,1.4080901145935059,6.431572437286377
1762166325.4724557,16.0,2.0,-972.0,0,0,0,-2.612138271331787,1.4080901145935059,6.431572437286377
1762166325.5731716,9.0,2.0,-1001.0,0,0,0,-2.612138271331787,1.4080901145935059,6.431572437286377
1762166325.6738112,-15.0,11.0,-1019.0,0,0,0,-2.612138271331787,1.4080901145935059,6.431572437286377
1762166325.7740126,6.0,17.0,-981.0,0,0,0,-2.612138271331787,1.4080901145935059,6.431572437286377
1762166325.874193,-17.0,1.0,-1001.0,0,0,0,-2.612138271331787,1.4080901145935059,6.431572437286377
1762166325.9745662,-15.0,-9.0,-986.0,0,0,0,-2.612138271331787,1.4080901145935059,6.431572437286377
1762166326.0751395,18.0,-2.0,-974.0,0,0,0,-2.612138271331787,1.4080901145935059,6.431572437286377
1762166326.1758747,42.0,-5.0,-1042.0,0,0,-1,-2.612138271331787,1.4080901145935059,6.330837249755859
1762166326.2761364,49.0,70.0,-1043.0,0,0,-1,-2.612138271331787,1.4080901145935059,6.2305755615234375
1762166326.3765233,41.0,36.0,-1035.0,0,0,0,-2.612138271331787,1.4080901145935059,6.2305755615234375
1762166326.47676,43.0,10.0,-1018.0,0,0,0,-2.612138271331787,1.4080901145935059,6.2305755615234375
1762166326.5770001,44.0,6.0,-995.0,0,0,0,-2.612138271331787,1.4080901145935059,6.2305755615234375
1762166326.677437,24.0,17.0,-1012.0,0,0,0,-2.612138271331787,1.4080901145935059,6.2305755615234375
1762166326.7778292,5.0,28.0,-994.0,0,0,0,-2.612138271331787,1.4080901145935059,6.2305755615234375
1762166326.8785422,-7.0,11.0,-1049.0,0,0,0,-2.612138271331787,1.4080901145935059,6.2305755615234375
1762166326.9794147,31.0,7.0,-1023.0,0,0,0,-2.612138271331787,1.4080901145935059,6.2305755615234375
1762166327.0796647,-1.0,8.0,-996.0,0,0,0,-2.612138271331787,1.4080901145935059,6.2305755615234375
1762166327.180091,14.0,15.0,-993.0,0,0,0,-2.612138271331787,1.4080901145935059,6.2305755615234375
1762166327.2803948,20.0,51.0,-972.0,1,0,0,-2.5118343830108643,1.4080901145935059,6.2305755615234375
1762166327.3810217,24.0,19.0,-1031.0,1,0,0,-2.411207437515259,1.4080901145935059,6.2305755615234375
1762166327.4814193,24.0,19.0,-1031.0,1,0,0,-2.310809850692749,1.4080901145935059,6.2305755615234375
1762166327.581783,20.0,32.0,-1000.0,0,0,0,-2.310809850692749,1.4080901145935059,6.2305755615234375
1762166327.6820178,-4.0,27.0,-988.0,0,0,0,-2.310809850692749,1.4080901145935059,6.2305755615234375
1762166327.7823086,11.0,22.0,-1022.0,0,0,0,-2.310809850692749,1.4080901145935059,6.2305755615234375
1762166327.8825924,38.0,2.0,-982.0,0,0,0,-2.310809850692749,1.4080901145935059,6.2305755615234375
1762166327.982981,18.0,-9.0,-1020.0,0,0,0,-2.310809850692749,1.4080901145935059,6.2305755615234375
1762166328.083582,25.0,-2.0,-1014.0,0,0,0,-2.310809850692749,1.4080901145935059,6.2305755615234375
1762166328.1840565,25.0,-2.0,-1014.0,0,0,0,-2.310809850692749,1.4080901145935059,6.2305755615234375
1762166328.2844334,5.0,-19.0,-1001.0,0,0,0,-2.310809850692749,1.4080901145935059,6.2305755615234375
1762166328.3847706,21.0,-51.0,-995.0,-1,0,0,-2.411147117614746,1.4080901145935059,6.2305755615234375
1762166328.4851863,6.0,14.0,-975.0,0,0,0,-2.411147117614746,1.4080901145935059,6.2305755615234375
1762166328.5854235,21.0,-1.0,-986.0,0,0,0,-2.411147117614746,1.4080901145935059,6.2305755615234375
1762166328.686112,8.0,20.0,-978.0,0,0,-1,-2.411147117614746,1.4080901145935059,6.129887104034424
1762166328.7866466,-31.0,0.0,-908.0,0,0,-2,-2.411147117614746,1.4080901145935059,5.9288177490234375
1762166328.8870423,-9.0,17.0,-877.0,0,0,-2,-2.411147117614746,1.4080901145935059,5.728026390075684
1762166328.9872906,-28.0,-10.0,-914.0,0,0,-3,-2.411147117614746,1.4080901145935059,5.427281379699707
1762166329.087826,-26.0,21.0,-901.0,0,0,-4,-2.411147117614746,1.4080901145935059,5.025139808654785
1762166329.1880343,-14.0,-5.0,-877.0,0,0,-5,-2.411147117614746,1.4080901145935059,4.5240983963012695
1762166329.288426,-22.0,0.0,-883.0,0,0,-6,-2.411147117614746,1.4080901145935059,3.921748638153076
1762166329.3890774,-14.0,9.0,-929.0,-1,0,-7,-2.511798620223999,1.4080901145935059,3.2171881198883057
1762166329.4900124,-17.0,-6.0,-1076.0,0,0,-6,-2.511798620223999,1.4080901145935059,2.6115782260894775
1762166329.5902038,44.0,-29.0,-813.0,0,2,0,-2.511798620223999,1.6084728240966797,2.6115782260894775
1762166329.6906207,-185.0,150.0,-867.0,0,2,-1,-2.511798620223999,1.8093066215515137,2.5111613273620605
1762166329.7912648,-86.0,103.0,-674.0,0,0,0,-2.511798620223999,1.8093066215515137,2.5111613273620605
1762166329.8914223,-57.0,47.0,-995.0,0,0,0,-2.511798620223999,1.8093066215515137,2.5111613273620605
1762166329.9918935,-57.0,73.0,-1001.0,0,1,0,-2.511798620223999,1.9097778797149658,2.5111613273620605
1762166330.092494,-49.0,66.0,-991.0,0,1,0,-2.511798620223999,2.010378360748291,2.5111613273620605
1762166330.1930342,-54.0,74.0,-998.0,0,1,0,-2.511798620223999,2.1109185218811035,2.5111613273620605
1762166330.2936575,-53.0,73.0,-996.0,0,1,0,-2.511798620223999,2.2115418910980225,2.5111613273620605
1762166330.3938434,-54.0,74.0,-1003.0,0,1,0,-2.511798620223999,2.31172776222229,2.5111613273620605
1762166330.4941509,-79.0,52.0,-993.0,0,1,0,-2.511798620223999,2.4120352268218994,2.5111613273620605
1762166330.5946581,-80.0,50.0,-995.0,0,1,0,-2.511798620223999,2.512542486190796,2.5111613273620605
1762166330.6953478,-57.0,57.0,-987.0,0,1,0,-2.511798620223999,2.613232135772705,2.5111613273620605
1762166330.7956767,-54.0,63.0,-990.0,0,1,0,-2.511798620223999,2.7135610580444336,2.5111613273620605
1762166330.8962195,-61.0,66.0,-990.0,-1,1,0,-2.6123414039611816,2.814103841781616,2.5111613273620605
1762166330.9964304,-62.0,57.0,-983.0,-1,1,-1,-2.712552309036255,2.9143147468566895,2.4109504222869873
1762166331.0967488,-52.0,69.0,-980.0,-1,1,-1,-2.812870740890503,3.0146331787109375,2.3106319904327393
1762166331.197862,-42.0,74.0,-993.0,-1,1,-1,-2.9139838218688965,3.115746259689331,2.2095189094543457
1762166331.298052,-51.0,65.0,-991.0,-1,1,-1,-3.014173984527588,3.2159364223480225,2.1093287467956543
1762166331.39822,-51.0,65.0,-991.0,-1,1,-1,-3.114341974258423,3.3161044120788574,2.0091607570648193
1762166331.4987113,-55.0,76.0,-996.0,-1,1,-1,-3.2148332595825195,3.416595697402954,1.9086694717407227
1762166331.5992255,-48.0,71.0,-997.0,-1,1,-1,-3.31534743309021,3.5171098709106445,1.8081552982330322
1762166331.6993716,-51.0,71.0,-993.0,0,0,-4,-3.31534743309021,3.5171098709106445,1.4075710773468018
1762166331.7998638,-54.0,70.0,-993.0,0,0,-4,-3.31534743309021,3.5171098709106445,1.0056021213531494
1762166331.900216,-98.0,35.0,-972.0,0,0,-4,-3.31534743309021,3.5171098709106445,0.6041929721832275
1762166332.00086,-76.0,48.0,-995.0,0,0,-3,-3.31534743309021,3.5171098709106445,0.3022613525390625
1762166332.1012905,-70.0,50.0,-996.0,0,0,-3,-3.31534743309021,3.5171098709106445,0.0009698867797851562
1762166332.201584,-81.0,44.0,-997.0,0,0,-2,-3.31534743309021,3.5171098709106445,-0.1996173858642578
1762166332.3019757,-82.0,45.0,-998.0,0,0,-2,-3.31534743309021,3.5171098709106445,-0.40040063858032227
1762166332.402675,-77.0,47.0,-998.0,0,0,-1,-3.31534743309021,3.5171098709106445,-0.5010998249053955
1762166332.5034068,-84.0,41.0,-1000.0,0,0,0,-3.31534743309021,3.5171098709106445,-0.5010998249053955
1762166332.6037626,-81.0,45.0,-999.0,0,0,0,-3.31534743309021,3.5171098709106445,-0.5010998249053955
1762166332.7042131,-81.0,46.0,-1001.0,0,0,0,-3.31534743309021,3.5171098709106445,-0.5010998249053955
1762166332.8049529,-82.0,41.0,-1004.0,0,0,1,-3.31534743309021,3.5171098709106445,-0.400360107421875
1762166332.9056203,-81.0,43.0,-1004.0,0,0,2,-3.31534743309021,3.5171098709106445,-0.19902515411376953
1762166333.006105,-83.0,44.0,-1007.0,0,0,3,-3.31534743309021,3.5171098709106445,0.10242867469787598
1762166333.1066546,-84.0,42.0,-1010.0,0,0,3,-3.31534743309021,3.5171098709106445,0.40407776832580566
1762166333.2072022,-85.0,41.0,-1003.0,0,0,4,-3.31534743309021,3.5171098709106445,0.8062679767608643
1762166333.3074605,-84.0,42.0,-1009.0,0,0,0,-3.31534743309021,3.5171098709106445,0.8062679767608643
1762166333.4078348,-83.0,43.0,-1009.0,0,0,0,-3.31534743309021,3.5171098709106445,0.8062679767608643
1762166333.5080717,-83.0,41.0,-1008.0,0,0,0,-3.31534743309021,3.5171098709106445,0.8062679767608643
1762166333.6083584,-84.0,41.0,-1010.0,0,0,0,-3.31534743309021,3.5171098709106445,0.8062679767608643
