Time,Ax,Ay,Az,Sx,Sy,Sz,x,y,z
1762512698.7860057,0.0,-4.0,-998.0,0,0,0,0.0,0.0,0.0
1762512698.898693,-1.0,-6.0,-999.0,0,0,0,0.0,0.0,0.0
1762512699.0107095,-1.0,-4.0,-1001.0,0,0,0,0.0,0.0,0.0
1762512699.1224651,0.0,-5.0,-1001.0,0,0,0,0.0,0.0,0.0
1762512699.2335036,0.0,-5.0,-1001.0,0,0,0,0.0,0.0,0.0
1762512699.345049,-1.0,-6.0,-998.0,0,0,0,0.0,0.0,0.0
1762512699.4573941,-1.0,-5.0,-998.0,0,0,0,0.0,0.0,0.0
1762512699.5610552,-1.0,-5.0,-998.0,0,0,0,0.0,0.0,0.0
1762512699.6708496,-1.0,-4.0,-1001.0,0,0,0,0.0,0.0,0.0
1762512699.7753186,0.0,-5.0,-1000.0,0,0,0,0.0,0.0,0.0
1762512699.88066,-3.0,-4.0,-998.0,0,0,0,0.0,0.0,0.0
1762512699.9911773,0.0,-3.0,-1001.0,0,0,0,0.0,0.0,0.0
1762512700.0951698,-3.0,-4.0,-1001.0,0,0,0,0.0,0.0,0.0
1762512700.2061756,-1.0,-5.0,-1001.0,0,0,0,0.0,0.0,0.0
1762512700.317757,0.0,-4.0,-1000.0,0,0,0,0.0,0.0,0.0
1762512700.4279857,0.0,-5.0,-1000.0,0,0,0,0.0,0.0,0.0
1762512700.5389879,-2.0,-3.0,-998.0,0,0,0,0.0,0.0,0.0
1762512700.6428494,-1.0,-5.0,-1003.0,0,0,0,0.0,0.0,0.0
1762512700.754685,-2.0,-6.0,-1001.0,0,0,0,0.0,0.0,0.0
1762512700.8658407,-1.0,-4.0,-997.0,0,0,0,0.0,0.0,0.0
1762512700.9786448,-1.0,-4.0,-997.0,0,0,0,0.0,0.0,0.0
1762512701.0884964,-2.0,-4.0,-1000.0,0,0,0,0.0,0.0,0.0
1762512701.192484,0.0,-4.0,-998.0,0,0,0,0.0,0.0,0.0
1762512701.3056912,-1.0,-5.0,-999.0,0,0,0,0.0,0.0,0.0
1762512701.4183738,-1.0,-5.0,-999.0,0,0,0,0.0,0.0,0.0
1762512701.5313866,0.0,-5.0,-999.0,0,0,0,0.0,0.0,0.0
1762512701.6429434,0.0,-5.0,-999.0,0,0,0,0.0,0.0,0.0
1762512701.7547276,-1.0,-5.0,-1001.0,0,0,0,0.0,0.0,0.0
1762512701.8581653,-1.0,-4.0,-1001.0,0,0,0,0.0,0.0,0.0
1762512701.9613545,-1.0,-4.0,-999.0,0,0,0,0.0,0.0,0.0
1762512702.0748115,2.0,-6.0,-998.0,0,0,0,0.0,0.0,0.0
1762512702.1785915,-11.0,-19.0,-993.0,0,0,0,0.0,0.0,0.0
1762512702.2887514,-17.0,-14.0,-1003.0,0,0,0,0.0,0.0,0.0
1762512702.3933322,-7.0,1.0,-995.0,0,0,0,0.0,0.0,0.0
1762512702.495028,50.0,-2.0,-987.0,0,0,0,0.0,0.0,0.0
1762512702.6070857,17.0,-31.0,-1018.0,0,0,0,0.0,0.0,0.0
1762512702.711243,-22.0,-19.0,-1025.0,0,0,0,0.0,0.0,0.0
1762512702.823832,1.0,-15.0,-1101.0,0,0,0,0.0,0.0,0.0
1762512702.9286907,20.0,-10.0,-1103.0,0,0,1,0.0,0.0,0.1048586368560791
1762512703.0422506,2.0,-6.0,-1156.0,-1,0,3,-0.11355996131896973,0.0,0.4455385208129883
1762512703.145994,11.0,-18.0,-1085.0,-1,0,4,-0.21730327606201172,0.0,0.8605117797851562
1762512703.2612813,-15.0,-34.0,-1058.0,0,0,5,-0.21730327606201172,0.0,1.436948299407959
1762512703.374359,-32.0,-13.0,-1001.0,0,0,5,-0.21730327606201172,0.0,2.0023365020751953
1762512703.4871285,-36.0,-15.0,-972.0,0,0,5,-0.21730327606201172,0.0,2.5661845207214355
1762512703.5998218,74.0,-3.0,-1044.0,0,0,5,-0.21730327606201172,0.0,3.1296510696411133
1762512703.7125275,40.0,-11.0,-1012.0,0,0,5,-0.21730327606201172,0.0,3.6931796073913574
1762512703.825063,-24.0,-7.0,-978.0,0,0,4,-0.21730327606201172,0.0,4.143321514129639
1762512703.937655,-1.0,-9.0,-972.0,0,0,4,-0.21730327606201172,0.0,4.593689441680908
1762512704.049811,-11.0,-20.0,-1018.0,0,0,4,-0.21730327606201172,0.0,5.042313098907471
1762512704.1617157,32.0,-14.0,-996.0,0,0,4,-0.21730327606201172,0.0,5.489932537078857
1762512704.271928,-13.0,5.0,-877.0,0,0,3,-0.21730327606201172,0.0,5.8205695152282715
1762512704.3729036,-8.0,6.0,-882.0,0,0,3,-0.21730327606201172,0.0,6.123496055603027
1762512704.4855978,-4.0,-2.0,-972.0,0,0,2,-0.21730327606201172,0.0,6.348884582519531
1762512704.5986974,43.0,-3.0,-968.0,0,0,1,-0.21730327606201172,0.0,6.461984157562256
1762512704.711179,30.0,10.0,-959.0,0,0,0,-0.21730327606201172,0.0,6.461984157562256
1762512704.8244839,-37.0,-6.0,-896.0,0,0,0,-0.21730327606201172,0.0,6.461984157562256
1762512704.936897,-37.0,-6.0,-896.0,0,0,0,-0.21730327606201172,0.0,6.461984157562256
1762512705.0476177,10.0,-23.0,-1035.0,0,0,0,-0.21730327606201172,0.0,6.461984157562256
1762512705.1602607,0.0,4.0,-972.0,0,0,0,-0.21730327606201172,0.0,6.461984157562256
1762512705.2724512,20.0,10.0,-990.0,0,0,0,-0.21730327606201172,0.0,6.461984157562256
1762512705.3866825,36.0,-20.0,-1000.0,0,0,0,-0.21730327606201172,0.0,6.461984157562256
1762512705.499868,19.0,-18.0,-1035.0,0,0,0,-0.21730327606201172,0.0,6.461984157562256
1762512705.6122513,13.0,-16.0,-993.0,0,0,0,-0.21730327606201172,0.0,6.461984157562256
1762512705.7257588,9.0,2.0,-1012.0,0,0,0,-0.21730327606201172,0.0,6.461984157562256
1762512705.838647,38.0,-8.0,-1010.0,0,0,0,-0.21730327606201172,0.0,6.461984157562256
1762512705.9523547,0.0,0.0,-1000.0,0,0,0,-0.21730327606201172,0.0,6.461984157562256
1762512706.0654085,-15.0,-7.0,-1017.0,0,0,0,-0.21730327606201172,0.0,6.461984157562256
1762512706.1786091,7.0,1.0,-967.0,0,0,0,-0.21730327606201172,0.0,6.461984157562256
1762512706.291683,15.0,1.0,-1018.0,0,0,0,-0.21730327606201172,0.0,6.461984157562256
1762512706.396939,22.0,13.0,-1012.0,0,0,0,-0.21730327606201172,0.0,6.461984157562256
1762512706.5106218,-41.0,16.0,-979.0,0,0,0,-0.21730327606201172,0.0,6.461984157562256
1762512706.623509,-18.0,-31.0,-1037.0,0,0,0,-0.21730327606201172,0.0,6.461984157562256
1762512706.735727,16.0,-4.0,-1064.0,0,0,0,-0.21730327606201172,0.0,6.461984157562256
1762512706.848754,20.0,-21.0,-1011.0,0,0,0,-0.21730327606201172,0.0,6.461984157562256
1762512706.961808,4.0,4.0,-1017.0,0,0,0,-0.21730327606201172,0.0,6.461984157562256
1762512707.0722191,-15.0,9.0,-973.0,0,0,0,-0.21730327606201172,0.0,6.461984157562256
1762512707.1854975,-31.0,-8.0,-1006.0,0,0,0,-0.21730327606201172,0.0,6.461984157562256
1762512707.2988722,-47.0,-20.0,-979.0,0,0,0,-0.21730327606201172,0.0,6.461984157562256
1762512707.4114041,-15.0,-9.0,-979.0,0,0,0,-0.21730327606201172,0.0,6.461984157562256
1762512707.5270393,-24.0,-12.0,-990.0,0,0,0,-0.21730327606201172,0.0,6.461984157562256
1762512707.6407802,-7.0,-16.0,-959.0,0,0,0,-0.21730327606201172,0.0,6.461984157562256
1762512707.7533908,-6.0,-16.0,-1069.0,0,0,0,-0.21730327606201172,0.0,6.461984157562256
1762512707.8664846,23.0,14.0,-1008.0,0,0,0,-0.21730327606201172,0.0,6.461984157562256
1762512707.9792657,10.0,13.0,-931.0,0,0,0,-0.21730327606201172,0.0,6.461984157562256
1762512708.091549,-35.0,0.0,-1023.0,0,0,0,-0.21730327606201172,0.0,6.461984157562256
1762512708.203359,22.0,15.0,-1069.0,0,0,0,-0.21730327606201172,0.0,6.461984157562256
1762512708.3159783,5.0,40.0,-917.0,0,0,0,-0.21730327606201172,0.0,6.461984157562256
1762512708.4290204,30.0,-9.0,-1035.0,0,0,0,-0.21730327606201172,0.0,6.461984157562256
1762512708.5449421,38.0,16.0,-956.0,0,0,0,-0.21730327606201172,0.0,6.461984157562256
1762512708.6578844,-6.0,6.0,-955.0,0,0,0,-0.21730327606201172,0.0,6.461984157562256
1762512708.7710047,-2.0,-3.0,-1050.0,0,0,0,-0.21730327606201172,0.0,6.461984157562256
1762512708.883252,31.0,0.0,-993.0,0,0,0,-0.21730327606201172,0.0,6.461984157562256
1762512708.9963548,9.0,0.0,-965.0,0,0,0,-0.21730327606201172,0.0,6.461984157562256
1762512709.1119342,-18.0,-8.0,-978.0,0,0,0,-0.21730327606201172,0.0,6.461984157562256
1762512709.223934,-28.0,-14.0,-952.0,0,0,0,-0.21730327606201172,0.0,6.461984157562256
1762512709.3373373,10.0,-27.0,-1053.0,0,0,0,-0.21730327606201172,0.0,6.461984157562256
1762512709.4498382,-10.0,-1.0,-972.0,0,0,0,-0.21730327606201172,0.0,6.461984157562256
1762512709.5624163,20.0,10.0,-1015.0,0,0,0,-0.21730327606201172,0.0,6.461984157562256
1762512709.6755426,37.0,-7.0,-1020.0,0,0,0,-0.21730327606201172,0.0,6.461984157562256
1762512709.788251,37.0,-7.0,-1020.0,0,0,0,-0.21730327606201172,0.0,6.461984157562256
1762512709.9009182,-44.0,-3.0,-1020.0,0,0,0,-0.21730327606201172,0.0,6.461984157562256
1762512710.0144312,-27.0,-17.0,-1000.0,0,0,0,-0.21730327606201172,0.0,6.461984157562256
1762512710.125154,9.0,-11.0,-973.0,0,0,0,-0.21730327606201172,0.0,6.461984157562256
1762512710.238015,-2.0,-9.0,-988.0,0,0,0,-0.21730327606201172,0.0,6.461984157562256
1762512710.3501275,-8.0,-19.0,-993.0,0,0,0,-0.21730327606201172,0.0,6.461984157562256
1762512710.4623582,8.0,-8.0,-962.0,0,0,0,-0.21730327606201172,0.0,6.461984157562256
1762512710.5755785,8.0,-8.0,-962.0,0,0,0,-0.21730327606201172,0.0,6.461984157562256
1762512710.678037,-6.0,4.0,-981.0,0,0,0,-0.21730327606201172,0.0,6.461984157562256
1762512710.7912009,16.0,-27.0,-1048.0,0,0,0,-0.21730327606201172,0.0,6.461984157562256
1762512710.9038699,-7.0,-22.0,-967.0,0,0,0,-0.21730327606201172,0.0,6.461984157562256
1762512711.0081413,11.0,0.0,-1031.0,0,0,0,-0.21730327606201172,0.0,6.461984157562256
1762512711.1130683,25.0,-3.0,-1017.0,0,0,0,-0.21730327606201172,0.0,6.461984157562256
1762512711.222155,17.0,2.0,-1001.0,0,0,0,-0.21730327606201172,0.0,6.461984157562256
1762512711.3354607,-5.0,-15.0,-1003.0,0,0,0,-0.21730327606201172,0.0,6.461984157562256
1762512711.4488866,-30.0,-26.0,-995.0,0,0,0,-0.21730327606201172,0.0,6.461984157562256
1762512711.5616646,-25.0,-37.0,-1017.0,0,0,0,-0.21730327606201172,0.0,6.461984157562256
1762512711.6745641,0.0,7.0,-999.0,0,0,0,-0.21730327606201172,0.0,6.461984157562256
1762512711.7786524,0.0,7.0,-999.0,0,0,0,-0.21730327606201172,0.0,6.461984157562256
1762512711.8916032,1.0,-42.0,-970.0,0,0,0,-0.21730327606201172,0.0,6.461984157562256
1762512711.996193,-8.0,7.0,-936.0,0,0,0,-0.21730327606201172,0.0,6.461984157562256
1762512712.1083052,-32.0,-22.0,-992.0,0,0,0,-0.21730327606201172,0.0,6.461984157562256
1762512712.2125971,3.0,7.0,-1007.0,0,0,0,-0.21730327606201172,0.0,6.461984157562256
1762512712.323222,-15.0,9.0,-953.0,0,0,0,-0.21730327606201172,0.0,6.461984157562256
1762512712.434504,22.0,18.0,-958.0,0,0,0,-0.21730327606201172,0.0,6.461984157562256
1762512712.54627,-36.0,-5.0,-1002.0,0,0,0,-0.21730327606201172,0.0,6.461984157562256
1762512712.6575036,2.0,-27.0,-953.0,0,0,0,-0.21730327606201172,0.0,6.461984157562256
1762512712.7631755,48.0,9.0,-995.0,0,0,0,-0.21730327606201172,0.0,6.461984157562256
1762512712.875015,5.0,-15.0,-968.0,0,0,0,-0.21730327606201172,0.0,6.461984157562256
1762512712.9866102,25.0,0.0,-1012.0,0,0,0,-0.21730327606201172,0.0,6.461984157562256
1762512713.098043,-17.0,-15.0,-974.0,0,0,0,-0.21730327606201172,0.0,6.461984157562256
1762512713.209599,24.0,3.0,-1013.0,0,0,0,-0.21730327606201172,0.0,6.461984157562256
1762512713.3214047,33.0,15.0,-957.0,0,0,0,-0.21730327606201172,0.0,6.461984157562256
1762512713.4318879,14.0,9.0,-1002.0,0,0,0,-0.21730327606201172,0.0,6.461984157562256
1762512713.5426302,20.0,-30.0,-1047.0,0,0,0,-0.21730327606201172,0.0,6.461984157562256
1762512713.6538994,24.0,-10.0,-1032.0,0,0,0,-0.21730327606201172,0.0,6.461984157562256
1762512713.7639194,27.0,14.0,-1005.0,0,0,0,-0.21730327606201172,0.0,6.461984157562256
1762512713.8768458,11.0,-10.0,-1059.0,0,0,0,-0.21730327606201172,0.0,6.461984157562256
1762512713.9881892,69.0,-43.0,-978.0,0,0,0,-0.21730327606201172,0.0,6.461984157562256
1762512714.0991673,39.0,2.0,-1009.0,0,0,0,-0.21730327606201172,0.0,6.461984157562256
1762512714.2114139,8.0,9.0,-1001.0,0,0,0,-0.21730327606201172,0.0,6.461984157562256
1762512714.3236125,-24.0,9.0,-979.0,0,0,0,-0.21730327606201172,0.0,6.461984157562256
1762512714.4330244,30.0,3.0,-966.0,0,0,0,-0.21730327606201172,0.0,6.461984157562256
1762512714.5440867,-17.0,-2.0,-990.0,0,0,0,-0.21730327606201172,0.0,6.461984157562256
1762512714.656475,36.0,-1.0,-1000.0,0,0,0,-0.21730327606201172,0.0,6.461984157562256
1762512714.767713,-3.0,0.0,-1000.0,0,0,0,-0.21730327606201172,0.0,6.461984157562256
1762512714.8766232,-3.0,0.0,-1000.0,0,0,0,-0.21730327606201172,0.0,6.461984157562256
1762512714.990436,11.0,-29.0,-1049.0,0,0,0,-0.21730327606201172,0.0,6.461984157562256
1762512715.1023488,24.0,17.0,-973.0,0,0,0,-0.21730327606201172,0.0,6.461984157562256
1762512715.2141066,24.0,17.0,-973.0,0,0,0,-0.21730327606201172,0.0,6.461984157562256
1762512715.3260689,39.0,-3.0,-979.0,0,0,0,-0.21730327606201172,0.0,6.461984157562256
1762512715.4381223,-7.0,2.0,-997.0,0,0,0,-0.21730327606201172,0.0,6.461984157562256
1762512715.5504756,-7.0,2.0,-997.0,0,0,0,-0.21730327606201172,0.0,6.461984157562256
1762512715.6612961,9.0,-10.0,-1024.0,0,0,0,-0.21730327606201172,0.0,6.461984157562256
1762512715.7721984,37.0,-20.0,-988.0,0,0,0,-0.21730327606201172,0.0,6.461984157562256
1762512715.8829215,-33.0,-8.0,-983.0,0,0,0,-0.21730327606201172,0.0,6.461984157562256
1762512715.9955323,12.0,2.0,-1063.0,0,0,0,-0.21730327606201172,0.0,6.461984157562256
1762512716.101447,-33.0,0.0,-987.0,0,0,0,-0.21730327606201172,0.0,6.461984157562256
1762512716.2027142,-49.0,-5.0,-1003.0,0,0,0,-0.21730327606201172,0.0,6.461984157562256
1762512716.313412,-12.0,14.0,-937.0,0,0,0,-0.21730327606201172,0.0,6.461984157562256
1762512716.4244156,-19.0,-7.0,-945.0,0,0,0,-0.21730327606201172,0.0,6.461984157562256
1762512716.5288424,-19.0,-7.0,-945.0,0,0,0,-0.21730327606201172,0.0,6.461984157562256
1762512716.639794,-14.0,-27.0,-1030.0,-1,0,0,-0.32825493812561035,0.0,6.461984157562256
1762512716.7461517,-14.0,-27.0,-1030.0,-1,0,0,-0.434612512588501,0.0,6.461984157562256
1762512716.857934,-14.0,-27.0,-1030.0,-1,0,0,-0.5463948249816895,0.0,6.461984157562256
1762512716.9625623,-24.0,-15.0,-969.0,-2,0,0,-0.7556514739990234,0.0,6.461984157562256
1762512717.0743449,-30.0,7.0,-1000.0,-2,0,0,-0.9792165756225586,0.0,6.461984157562256
1762512717.1783547,-36.0,-15.0,-1017.0,-2,0,0,-1.1872363090515137,0.0,6.461984157562256
1762512717.283528,-36.0,-15.0,-1017.0,-2,0,0,-1.3975830078125,0.0,6.461984157562256
1762512717.393983,-17.0,-15.0,-1006.0,-2,0,0,-1.618492603302002,0.0,6.461984157562256
1762512717.5049877,-17.0,-15.0,-1006.0,-2,0,0,-1.8405022621154785,0.0,6.461984157562256
1762512717.6099436,-6.0,-13.0,-984.0,-2,0,0,-2.0504140853881836,0.0,6.461984157562256
1762512717.7211933,-4.0,13.0,-997.0,-2,0,0,-2.2729134559631348,0.0,6.461984157562256
1762512717.8324993,8.0,7.0,-990.0,-2,0,0,-2.495525360107422,0.0,6.461984157562256
1762512717.943456,13.0,-24.0,-1018.0,-2,0,0,-2.7174386978149414,0.0,6.461984157562256
1762512718.055524,13.0,-24.0,-1018.0,-2,0,0,-2.941575050354004,0.0,6.461984157562256
1762512718.1670878,-22.0,-25.0,-995.0,0,0,0,-2.941575050354004,0.0,6.461984157562256
1762512718.2791488,8.0,-14.0,-1073.0,0,-1,0,-2.941575050354004,-0.1120610237121582,6.461984157562256
1762512718.389895,0.0,-6.0,-1027.0,0,-1,0,-2.941575050354004,-0.2228071689605713,6.461984157562256
1762512718.5005088,-26.0,-3.0,-1010.0,0,-1,0,-2.941575050354004,-0.333420991897583,6.461984157562256
1762512718.6114857,16.0,-28.0,-1028.0,0,0,0,-2.941575050354004,-0.333420991897583,6.461984157562256
1762512718.7180238,16.0,-28.0,-1028.0,0,0,0,-2.941575050354004,-0.333420991897583,6.461984157562256
1762512718.826756,6.0,-25.0,-1068.0,0,0,0,-2.941575050354004,-0.333420991897583,6.461984157562256
1762512718.9365258,-28.0,-31.0,-970.0,0,0,0,-2.941575050354004,-0.333420991897583,6.461984157562256
1762512719.046905,-28.0,-31.0,-970.0,0,0,0,-2.941575050354004,-0.333420991897583,6.461984157562256
1762512719.1628418,25.0,-9.0,-958.0,0,0,0,-2.941575050354004,-0.333420991897583,6.461984157562256
1762512719.274506,12.0,6.0,-1007.0,0,0,0,-2.941575050354004,-0.333420991897583,6.461984157562256
1762512719.3778396,15.0,-7.0,-1053.0,0,0,0,-2.941575050354004,-0.333420991897583,6.461984157562256
1762512719.4895124,0.0,-6.0,-1006.0,0,0,0,-2.941575050354004,-0.333420991897583,6.461984157562256
1762512719.5929227,-13.0,8.0,-997.0,0,0,0,-2.941575050354004,-0.333420991897583,6.461984157562256
1762512719.6961825,8.0,0.0,-1022.0,0,0,0,-2.941575050354004,-0.333420991897583,6.461984157562256
1762512719.8060153,21.0,16.0,-1047.0,0,0,0,-2.941575050354004,-0.333420991897583,6.461984157562256
1762512719.9102688,-9.0,10.0,-1055.0,0,0,0,-2.941575050354004,-0.333420991897583,6.461984157562256
1762512720.0222375,-9.0,10.0,-1055.0,0,0,0,-2.941575050354004,-0.333420991897583,6.461984157562256
1762512720.1336606,-16.0,-11.0,-995.0,0,0,0,-2.941575050354004,-0.333420991897583,6.461984157562256
1762512720.2435644,25.0,-24.0,-1028.0,0,0,0,-2.941575050354004,-0.333420991897583,6.461984157562256
1762512720.355023,25.0,-24.0,-1028.0,0,0,0,-2.941575050354004,-0.333420991897583,6.461984157562256
1762512720.4656796,25.0,-24.0,-1028.0,0,0,0,-2.941575050354004,-0.333420991897583,6.461984157562256
1762512720.5775719,27.0,-3.0,-1011.0,0,0,0,-2.941575050354004,-0.333420991897583,6.461984157562256
1762512720.687999,0.0,-9.0,-975.0,0,0,0,-2.941575050354004,-0.333420991897583,6.461984157562256
1762512720.800519,0.0,9.0,-975.0,0,0,0,-2.941575050354004,-0.333420991897583,6.461984157562256
1762512720.9112766,3.0,-23.0,-1031.0,0,0,0,-2.941575050354004,-0.333420991897583,6.461984157562256
1762512721.0221932,10.0,-4.0,-1021.0,0,0,0,-2.941575050354004,-0.333420991897583,6.461984157562256
1762512721.133446,10.0,-4.0,-1021.0,0,0,0,-2.941575050354004,-0.333420991897583,6.461984157562256
1762512721.2399771,23.0,7.0,-1019.0,0,0,0,-2.941575050354004,-0.333420991897583,6.461984157562256
1762512721.3417087,3.0,1.0,-989.0,0,0,0,-2.941575050354004,-0.333420991897583,6.461984157562256
1762512721.453027,29.0,-9.0,-990.0,0,0,0,-2.941575050354004,-0.333420991897583,6.461984157562256
1762512721.5636444,29.0,-9.0,-990.0,0,0,0,-2.941575050354004,-0.333420991897583,6.461984157562256
1762512721.6752384,29.0,-9.0,-990.0,0,0,0,-2.941575050354004,-0.333420991897583,6.461984157562256
1762512721.7791696,7.0,2.0,-1061.0,0,0,0,-2.941575050354004,-0.333420991897583,6.461984157562256
1762512721.890254,16.0,-16.0,-1022.0,0,0,0,-2.941575050354004,-0.333420991897583,6.461984157562256
1762512722.0013258,15.0,-24.0,-960.0,0,0,0,-2.941575050354004,-0.333420991897583,6.461984157562256
1762512722.1122699,19.0,18.0,-995.0,0,0,0,-2.941575050354004,-0.333420991897583,6.461984157562256
1762512722.222682,19.0,18.0,-995.0,0,0,0,-2.941575050354004,-0.333420991897583,6.461984157562256
1762512722.3284214,-27.0,-4.0,-1015.0,0,0,0,-2.941575050354004,-0.333420991897583,6.461984157562256
1762512722.4388068,4.0,-1.0,-1012.0,0,0,0,-2.941575050354004,-0.333420991897583,6.461984157562256
1762512722.5497055,-19.0,-9.0,-1003.0,0,0,0,-2.941575050354004,-0.333420991897583,6.461984157562256
1762512722.660797,21.0,30.0,-995.0,0,0,0,-2.941575050354004,-0.333420991897583,6.461984157562256
1762512722.77216,8.0,5.0,-1034.0,0,0,0,-2.941575050354004,-0.333420991897583,6.461984157562256
1762512722.8774197,8.0,5.0,-1034.0,0,0,0,-2.941575050354004,-0.333420991897583,6.461984157562256
1762512722.9883935,8.0,5.0,-1034.0,0,0,0,-2.941575050354004,-0.333420991897583,6.461984157562256
1762512723.0995607,-6.0,-7.0,-972.0,0,0,0,-2.941575050354004,-0.333420991897583,6.461984157562256
1762512723.2101293,-8.0,-2.0,-990.0,0,0,0,-2.941575050354004,-0.333420991897583,6.461984157562256
1762512723.3214006,11.0,3.0,-1001.0,0,0,0,-2.941575050354004,-0.333420991897583,6.461984157562256
1762512723.4272208,-2.0,3.0,-1037.0,0,0,0,-2.941575050354004,-0.333420991897583,6.461984157562256
1762512723.5380235,-2.0,3.0,-1037.0,0,0,0,-2.941575050354004,-0.333420991897583,6.461984157562256
1762512723.649055,9.0,-25.0,-1023.0,0,0,0,-2.941575050354004,-0.333420991897583,6.461984157562256
1762512723.7600646,9.0,-25.0,-1023.0,0,0,0,-2.941575050354004,-0.333420991897583,6.461984157562256
1762512723.8710897,12.0,-1.0,-992.0,0,0,0,-2.941575050354004,-0.333420991897583,6.461984157562256
1762512723.9751215,43.0,-42.0,-971.0,0,0,0,-2.941575050354004,-0.333420991897583,6.461984157562256
1762512724.0858922,-13.0,34.0,-1048.0,0,0,0,-2.941575050354004,-0.333420991897583,6.461984157562256
1762512724.1968632,-13.0,34.0,-1048.0,0,0,0,-2.941575050354004,-0.333420991897583,6.461984157562256
1762512724.3090737,-13.0,34.0,-1048.0,0,0,0,-2.941575050354004,-0.333420991897583,6.461984157562256
1762512724.4134922,-23.0,0.0,-1024.0,0,0,0,-2.941575050354004,-0.333420991897583,6.461984157562256
1762512724.5161996,-29.0,16.0,-995.0,0,0,0,-2.941575050354004,-0.333420991897583,6.461984157562256
1762512724.6272523,-14.0,3.0,-983.0,0,0,0,-2.941575050354004,-0.333420991897583,6.461984157562256
1762512724.7385817,22.0,-13.0,-1047.0,0,0,0,-2.941575050354004,-0.333420991897583,6.461984157562256
1762512724.8496084,22.0,-13.0,-1047.0,0,0,0,-2.941575050354004,-0.333420991897583,6.461984157562256
1762512724.9623759,-20.0,44.0,-1050.0,0,0,0,-2.941575050354004,-0.333420991897583,6.461984157562256
1762512725.0749555,-20.0,44.0,-1050.0,0,0,0,-2.941575050354004,-0.333420991897583,6.461984157562256
1762512725.1857896,13.0,-13.0,-1000.0,0,0,0,-2.941575050354004,-0.333420991897583,6.461984157562256
1762512725.296935,13.0,-13.0,-1000.0,0,0,0,-2.941575050354004,-0.333420991897583,6.461984157562256
1762512725.407909,2.0,21.0,-1012.0,0,0,0,-2.941575050354004,-0.333420991897583,6.461984157562256
1762512725.5201797,2.0,21.0,-1012.0,0,0,0,-2.941575050354004,-0.333420991897583,6.461984157562256
1762512725.6327107,2.0,21.0,-1012.0,0,0,0,-2.941575050354004,-0.333420991897583,6.461984157562256
1762512725.7440877,-1.0,0.0,-1021.0,0,0,0,-2.941575050354004,-0.333420991897583,6.461984157562256
1762512725.855495,0.0,-38.0,-945.0,0,0,0,-2.941575050354004,-0.333420991897583,6.461984157562256
1762512725.965074,17.0,-1.0,-968.0,0,0,0,-2.941575050354004,-0.333420991897583,6.461984157562256
1762512726.0758202,17.0,-1.0,-968.0,0,0,0,-2.941575050354004,-0.333420991897583,6.461984157562256
1762512726.1875315,17.0,-1.0,-968.0,0,0,0,-2.941575050354004,-0.333420991897583,6.461984157562256
1762512726.2991307,-11.0,-7.0,-1036.0,0,0,0,-2.941575050354004,-0.333420991897583,6.461984157562256
1762512726.4101198,39.0,3.0,-1059.0,0,0,0,-2.941575050354004,-0.333420991897583,6.461984157562256
1762512726.5214684,39.0,3.0,-1059.0,0,0,0,-2.941575050354004,-0.333420991897583,6.461984157562256
1762512726.6330495,-39.0,0.0,-974.0,0,0,0,-2.941575050354004,-0.333420991897583,6.461984157562256
1762512726.7439575,8.0,7.0,-990.0,0,0,0,-2.941575050354004,-0.333420991897583,6.461984157562256
1762512726.8557112,8.0,-5.0,-1031.0,0,0,0,-2.941575050354004,-0.333420991897583,6.461984157562256
1762512726.9677908,-12.0,15.0,-1019.0,0,0,0,-2.941575050354004,-0.333420991897583,6.461984157562256
1762512727.07925,-6.0,1.0,-964.0,0,0,0,-2.941575050354004,-0.333420991897583,6.461984157562256
1762512727.1904707,84.0,-17.0,-1046.0,0,0,0,-2.941575050354004,-0.333420991897583,6.461984157562256
1762512727.3011317,19.0,-16.0,-1001.0,0,0,0,-2.941575050354004,-0.333420991897583,6.461984157562256
1762512727.4126873,7.0,2.0,-1032.0,0,0,0,-2.941575050354004,-0.333420991897583,6.461984157562256
1762512727.5232778,43.0,3.0,-967.0,0,0,0,-2.941575050354004,-0.333420991897583,6.461984157562256
1762512727.6374807,39.0,-2.0,-1022.0,0,0,0,-2.941575050354004,-0.333420991897583,6.461984157562256
1762512727.7497706,34.0,-20.0,-959.0,0,0,0,-2.941575050354004,-0.333420991897583,6.461984157562256
1762512727.8615897,64.0,-25.0,-965.0,0,0,0,-2.941575050354004,-0.333420991897583,6.461984157562256
1762512727.9734027,64.0,-25.0,-965.0,0,0,0,-2.941575050354004,-0.333420991897583,6.461984157562256
1762512728.0851603,64.0,-25.0,-965.0,0,0,0,-2.941575050354004,-0.333420991897583,6.461984157562256
1762512728.1931627,36.0,8.0,-982.0,0,0,0,-2.941575050354004,-0.333420991897583,6.461984157562256
1762512728.3035374,-4.0,3.0,-962.0,0,0,0,-2.941575050354004,-0.333420991897583,6.461984157562256
1762512728.4146543,-23.0,0.0,-1009.0,0,0,0,-2.941575050354004,-0.333420991897583,6.461984157562256
1762512728.5251377,-17.0,3.0,-1004.0,0,0,0,-2.941575050354004,-0.333420991897583,6.461984157562256
1762512728.6301775,58.0,-5.0,-1011.0,0,0,0,-2.941575050354004,-0.333420991897583,6.461984157562256
1762512728.7383127,-22.0,-4.0,-993.0,0,0,0,-2.941575050354004,-0.333420991897583,6.461984157562256
1762512728.8414652,26.0,-13.0,-1029.0,0,0,0,-2.941575050354004,-0.333420991897583,6.461984157562256
1762512728.952829,31.0,-12.0,-998.0,0,0,0,-2.941575050354004,-0.333420991897583,6.461984157562256
1762512729.0655966,24.0,-62.0,-983.0,0,0,0,-2.941575050354004,-0.333420991897583,6.461984157562256
1762512729.1789615,17.0,-30.0,-986.0,0,0,0,-2.941575050354004,-0.333420991897583,6.461984157562256
1762512729.291554,-1.0,-10.0,-1023.0,0,1,0,-2.941575050354004,-0.22082853317260742,6.461984157562256
1762512729.3956437,3.0,-14.0,-990.0,0,1,0,-2.941575050354004,-0.11673879623413086,6.461984157562256
1762512729.5070436,0.0,30.0,-1014.0,1,2,0,-2.8301751613616943,0.10606098175048828,6.461984157562256
1762512729.6118236,15.0,6.0,-1009.0,1,2,0,-2.7253952026367188,0.31562089920043945,6.461984157562256
1762512729.7241104,-41.0,23.0,-959.0,1,2,0,-2.6131083965301514,0.5401945114135742,6.461984157562256
1762512729.828495,27.0,3.0,-985.0,1,2,0,-2.508723735809326,0.7489638328552246,6.461984157562256
1762512729.9356177,-18.0,17.0,-971.0,1,2,0,-2.4016010761260986,0.9632091522216797,6.461984157562256
1762512730.0445206,53.0,9.0,-973.0,1,2,0,-2.2926981449127197,1.1810150146484375,6.461984157562256
1762512730.156715,40.0,-11.0,-1003.0,1,2,0,-2.1805038452148438,1.4054036140441895,6.461984157562256
1762512730.2635336,40.0,-11.0,-1003.0,1,2,0,-2.0736851692199707,1.6190409660339355,6.461984157562256
1762512730.3770027,15.0,-19.0,-937.0,1,2,0,-1.9602160453796387,1.8459792137145996,6.461984157562256
1762512730.4896212,14.0,26.0,-972.0,1,2,0,-1.847597599029541,2.071216106414795,6.461984157562256
1762512730.6023076,14.0,26.0,-972.0,1,2,0,-1.7349112033843994,2.296588897705078,6.461984157562256
1762512730.7160714,7.0,26.0,-1014.0,1,2,0,-1.6211473941802979,2.5241165161132812,6.461984157562256
1762512730.8222144,33.0,19.0,-861.0,1,2,0,-1.5150043964385986,2.7364025115966797,6.461984157562256
1762512730.935071,33.0,19.0,-861.0,1,2,0,-1.4021477699279785,2.96211576461792,6.461984157562256
1762512731.048149,-24.0,0.0,-997.0,0,1,0,-1.4021477699279785,3.0751938819885254,6.461984157562256
1762512731.15418,15.0,-14.0,-964.0,0,0,0,-1.4021477699279785,3.0751938819885254,6.461984157562256
1762512731.2612526,-14.0,-14.0,-1003.0,0,0,0,-1.4021477699279785,3.0751938819885254,6.461984157562256
1762512731.3709888,12.0,11.0,-1013.0,0,0,0,-1.4021477699279785,3.0751938819885254,6.461984157562256
1762512731.4830575,-13.0,0.0,-1053.0,0,0,0,-1.4021477699279785,3.0751938819885254,6.461984157562256
1762512731.5957465,-13.0,0.0,-1053.0,0,0,0,-1.4021477699279785,3.0751938819885254,6.461984157562256
1762512731.708084,-25.0,-41.0,-976.0,0,0,0,-1.4021477699279785,3.0751938819885254,6.461984157562256
1762512731.8117998,0.0,-5.0,-1037.0,0,0,0,-1.4021477699279785,3.0751938819885254,6.461984157562256
1762512731.9242082,9.0,-2.0,-1004.0,0,0,0,-1.4021477699279785,3.0751938819885254,6.461984157562256
1762512732.0285048,41.0,-14.0,-973.0,0,0,0,-1.4021477699279785,3.0751938819885254,6.461984157562256
1762512732.142323,-4.0,-22.0,-935.0,0,0,0,-1.4021477699279785,3.0751938819885254,6.461984157562256
1762512732.246754,-37.0,22.0,-1008.0,0,0,0,-1.4021477699279785,3.0751938819885254,6.461984157562256
1762512732.3591192,-45.0,5.0,-1007.0,0,0,0,-1.4021477699279785,3.0751938819885254,6.461984157562256
1762512732.4633088,-8.0,-26.0,-1008.0,0,0,0,-1.4021477699279785,3.0751938819885254,6.461984157562256
1762512732.577198,-8.0,-26.0,-1008.0,0,0,0,-1.4021477699279785,3.0751938819885254,6.461984157562256
1762512732.6903741,1.0,-5.0,-1011.0,0,0,0,-1.4021477699279785,3.0751938819885254,6.461984157562256
1762512732.8028395,-9.0,14.0,-984.0,0,0,0,-1.4021477699279785,3.0751938819885254,6.461984157562256
1762512732.9056585,4.0,-8.0,-962.0,0,0,0,-1.4021477699279785,3.0751938819885254,6.461984157562256
1762512733.0185199,17.0,-20.0,-985.0,0,0,0,-1.4021477699279785,3.0751938819885254,6.461984157562256
1762512733.1298873,8.0,23.0,-1046.0,0,0,0,-1.4021477699279785,3.0751938819885254,6.461984157562256
1762512733.242611,21.0,0.0,-1025.0,0,0,0,-1.4021477699279785,3.0751938819885254,6.461984157562256
1762512733.3553476,13.0,-6.0,-996.0,0,0,0,-1.4021477699279785,3.0751938819885254,6.461984157562256
1762512733.462938,-43.0,2.0,-1081.0,0,0,0,-1.4021477699279785,3.0751938819885254,6.461984157562256
1762512733.5759678,-45.0,7.0,-982.0,0,0,0,-1.4021477699279785,3.0751938819885254,6.461984157562256
1762512733.68917,-12.0,-18.0,-1050.0,0,0,0,-1.4021477699279785,3.0751938819885254,6.461984157562256
1762512733.802072,-33.0,8.0,-1040.0,0,0,0,-1.4021477699279785,3.0751938819885254,6.461984157562256
1762512733.9147305,-22.0,2.0,-1001.0,0,0,0,-1.4021477699279785,3.0751938819885254,6.461984157562256
1762512734.0268512,9.0,-8.0,-960.0,0,0,0,-1.4021477699279785,3.0751938819885254,6.461984157562256
1762512734.1396055,-17.0,-10.0,-996.0,0,0,0,-1.4021477699279785,3.0751938819885254,6.461984157562256
1762512734.2512608,-17.0,-10.0,-996.0,0,0,0,-1.4021477699279785,3.0751938819885254,6.461984157562256
1762512734.3624938,-8.0,0.0,-963.0,0,0,0,-1.4021477699279785,3.0751938819885254,6.461984157562256
1762512734.47589,0.0,-8.0,-998.0,0,0,0,-1.4021477699279785,3.0751938819885254,6.461984157562256
1762512734.587693,12.0,9.0,-960.0,0,0,0,-1.4021477699279785,3.0751938819885254,6.461984157562256
1762512734.7003658,-13.0,-4.0,-994.0,0,0,0,-1.4021477699279785,3.0751938819885254,6.461984157562256
1762512734.8124733,-11.0,-6.0,-987.0,0,0,0,-1.4021477699279785,3.0751938819885254,6.461984157562256
1762512734.9253654,-9.0,15.0,-969.0,0,0,0,-1.4021477699279785,3.0751938819885254,6.461984157562256
1762512735.0297973,-17.0,-15.0,-990.0,0,0,0,-1.4021477699279785,3.0751938819885254,6.461984157562256
1762512735.1433537,-24.0,-6.0,-998.0,0,0,0,-1.4021477699279785,3.0751938819885254,6.461984157562256
1762512735.2555964,-11.0,22.0,-1057.0,0,0,0,-1.4021477699279785,3.0751938819885254,6.461984157562256
1762512735.3684585,-18.0,35.0,-998.0,0,0,0,-1.4021477699279785,3.0751938819885254,6.461984157562256
1762512735.4806116,0.0,-26.0,-973.0,0,0,0,-1.4021477699279785,3.0751938819885254,6.461984157562256
1762512735.5963125,-24.0,11.0,-1001.0,0,0,0,-1.4021477699279785,3.0751938819885254,6.461984157562256
1762512735.7088814,-23.0,-1.0,-973.0,0,0,0,-1.4021477699279785,3.0751938819885254,6.461984157562256
1762512735.821551,-10.0,-5.0,-977.0,0,0,0,-1.4021477699279785,3.0751938819885254,6.461984157562256
1762512735.9341545,-22.0,18.0,-992.0,0,0,0,-1.4021477699279785,3.0751938819885254,6.461984157562256
1762512736.0465364,-9.0,20.0,-1002.0,0,0,0,-1.4021477699279785,3.0751938819885254,6.461984157562256
1762512736.1607475,-10.0,1.0,-1003.0,0,0,0,-1.4021477699279785,3.0751938819885254,6.461984157562256
1762512736.2732146,-17.0,2.0,-986.0,0,0,0,-1.4021477699279785,3.0751938819885254,6.461984157562256
1762512736.386181,3.0,29.0,-998.0,0,0,0,-1.4021477699279785,3.0751938819885254,6.461984157562256
1762512736.4989474,9.0,16.0,-1020.0,0,0,0,-1.4021477699279785,3.0751938819885254,6.461984157562256
1762512736.611649,11.0,-21.0,-974.0,0,0,0,-1.4021477699279785,3.0751938819885254,6.461984157562256
1762512736.7195466,3.0,-2.0,-958.0,0,0,0,-1.4021477699279785,3.0751938819885254,6.461984157562256
1762512736.8322835,-36.0,-27.0,-978.0,0,0,0,-1.4021477699279785,3.0751938819885254,6.461984157562256
1762512736.945045,26.0,16.0,-995.0,0,0,0,-1.4021477699279785,3.0751938819885254,6.461984157562256
1762512737.0573778,-10.0,-14.0,-1002.0,0,0,0,-1.4021477699279785,3.0751938819885254,6.461984157562256
1762512737.163098,27.0,3.0,-946.0,0,0,0,-1.4021477699279785,3.0751938819885254,6.461984157562256
1762512737.2760613,13.0,28.0,-972.0,0,0,0,-1.4021477699279785,3.0751938819885254,6.461984157562256
1762512737.3887236,-21.0,-3.0,-980.0,0,0,0,-1.4021477699279785,3.0751938819885254,6.461984157562256
1762512737.5012472,-6.0,-7.0,-1020.0,0,0,0,-1.4021477699279785,3.0751938819885254,6.461984157562256
1762512737.6139655,4.0,-8.0,-952.0,0,0,0,-1.4021477699279785,3.0751938819885254,6.461984157562256
1762512737.728299,18.0,0.0,-1022.0,0,0,0,-1.4021477699279785,3.0751938819885254,6.461984157562256
1762512737.8402615,7.0,4.0,-1011.0,0,0,0,-1.4021477699279785,3.0751938819885254,6.461984157562256
1762512737.9514825,-15.0,7.0,-948.0,0,0,0,-1.4021477699279785,3.0751938819885254,6.461984157562256
1762512738.0627315,5.0,13.0,-990.0,0,0,0,-1.4021477699279785,3.0751938819885254,6.461984157562256
1762512738.1745548,-29.0,-11.0,-1021.0,0,0,0,-1.4021477699279785,3.0751938819885254,6.461984157562256
1762512738.2872663,22.0,1.0,-982.0,0,0,0,-1.4021477699279785,3.0751938819885254,6.461984157562256
1762512738.3989058,49.0,2.0,-994.0,0,0,0,-1.4021477699279785,3.0751938819885254,6.461984157562256
1762512738.511894,11.0,-2.0,-993.0,0,0,0,-1.4021477699279785,3.0751938819885254,6.461984157562256
1762512738.624068,13.0,-14.0,-967.0,0,0,0,-1.4021477699279785,3.0751938819885254,6.461984157562256
1762512738.7305226,-31.0,24.0,-988.0,0,0,0,-1.4021477699279785,3.0751938819885254,6.461984157562256
1762512738.842411,6.0,-5.0,-953.0,0,0,0,-1.4021477699279785,3.0751938819885254,6.461984157562256
1762512738.9554203,-16.0,-5.0,-1022.0,0,0,0,-1.4021477699279785,3.0751938819885254,6.461984157562256
1762512739.067647,-2.0,11.0,-1009.0,0,0,0,-1.4021477699279785,3.0751938819885254,6.461984157562256
1762512739.1802347,-4.0,16.0,-1011.0,0,0,0,-1.4021477699279785,3.0751938819885254,6.461984157562256
1762512739.2877111,-20.0,-22.0,-1036.0,0,0,0,-1.4021477699279785,3.0751938819885254,6.461984157562256
1762512739.3995805,39.0,17.0,-1011.0,0,0,0,-1.4021477699279785,3.0751938819885254,6.461984157562256
1762512739.5108597,-5.0,14.0,-958.0,0,0,0,-1.4021477699279785,3.0751938819885254,6.461984157562256
1762512739.6241295,-43.0,13.0,-1014.0,0,0,0,-1.4021477699279785,3.0751938819885254,6.461984157562256
1762512739.737497,41.0,-1.0,-1010.0,0,0,0,-1.4021477699279785,3.0751938819885254,6.461984157562256
1762512739.844445,28.0,7.0,-1036.0,0,0,0,-1.4021477699279785,3.0751938819885254,6.461984157562256
1762512739.957886,-41.0,-12.0,-974.0,0,0,0,-1.4021477699279785,3.0751938819885254,6.461984157562256
1762512740.0695791,6.0,4.0,-1004.0,0,0,0,-1.4021477699279785,3.0751938819885254,6.461984157562256
1762512740.1822813,-15.0,12.0,-992.0,0,0,0,-1.4021477699279785,3.0751938819885254,6.461984157562256
1762512740.2947273,15.0,-7.0,-1007.0,0,0,0,-1.4021477699279785,3.0751938819885254,6.461984157562256
1762512740.4029562,15.0,-7.0,-1007.0,0,0,0,-1.4021477699279785,3.0751938819885254,6.461984157562256
1762512740.5158021,-17.0,16.0,-1014.0,0,0,0,-1.4021477699279785,3.0751938819885254,6.461984157562256
1762512740.6199262,-19.0,-1.0,-998.0,0,0,0,-1.4021477699279785,3.0751938819885254,6.461984157562256
1762512740.7332768,-29.0,17.0,-997.0,0,0,0,-1.4021477699279785,3.0751938819885254,6.461984157562256
1762512740.8462386,-10.0,35.0,-990.0,0,0,0,-1.4021477699279785,3.0751938819885254,6.461984157562256
1762512740.9583755,22.0,2.0,-1005.0,0,0,0,-1.4021477699279785,3.0751938819885254,6.461984157562256
1762512741.0715468,26.0,9.0,-1027.0,0,0,0,-1.4021477699279785,3.0751938819885254,6.461984157562256
1762512741.17702,21.0,8.0,-1033.0,0,0,0,-1.4021477699279785,3.0751938819885254,6.461984157562256
1762512741.2806187,-19.0,7.0,-989.0,0,0,0,-1.4021477699279785,3.0751938819885254,6.461984157562256
1762512741.3904183,26.0,28.0,-962.0,0,0,0,-1.4021477699279785,3.0751938819885254,6.461984157562256
1762512741.5039985,23.0,-11.0,-986.0,0,0,0,-1.4021477699279785,3.0751938819885254,6.461984157562256
1762512741.616661,-20.0,-10.0,-985.0,0,0,0,-1.4021477699279785,3.0751938819885254,6.461984157562256
1762512741.728267,-12.0,-14.0,-1000.0,1,0,0,-1.2905418872833252,3.0751938819885254,6.461984157562256
1762512741.8407333,-15.0,13.0,-947.0,1,0,0,-1.1780755519866943,3.0751938819885254,6.461984157562256
1762512741.9449492,22.0,4.0,-1001.0,1,0,0,-1.073859691619873,3.0751938819885254,6.461984157562256
1762512742.0578823,22.0,4.0,-1001.0,1,0,0,-0.9609265327453613,3.0751938819885254,6.461984157562256
1762512742.1615088,26.0,-6.0,-1006.0,2,0,0,-0.7536735534667969,3.0751938819885254,6.461984157562256
1762512742.2744465,21.0,-9.0,-1015.0,2,0,0,-0.5277981758117676,3.0751938819885254,6.461984157562256
1762512742.3770812,-8.0,-10.0,-987.0,2,0,0,-0.3225288391113281,3.0751938819885254,6.461984157562256
1762512742.4810028,45.0,7.0,-983.0,2,0,0,-0.1146855354309082,3.0751938819885254,6.461984157562256
1762512742.594342,16.0,-21.0,-1001.0,2,0,0,0.11199283599853516,3.0751938819885254,6.461984157562256
1762512742.7064335,11.0,-24.0,-998.0,2,0,0,0.33617591857910156,3.0751938819885254,6.461984157562256
1762512742.817109,54.0,-17.0,-1033.0,2,0,0,0.5575270652770996,3.0751938819885254,6.461984157562256
1762512742.9269211,28.0,0.0,-1024.0,2,0,0,0.7771511077880859,3.0751938819885254,6.461984157562256
1762512743.038375,1.0,-24.0,-1012.0,2,0,0,1.000058650970459,3.0751938819885254,6.461984157562256
1762512743.1514502,50.0,-30.0,-1026.0,2,0,0,1.2262091636657715,3.0751938819885254,6.461984157562256
1762512743.2636318,11.0,-4.0,-1054.0,2,0,0,1.4505724906921387,3.0751938819885254,6.461984157562256
1762512743.376619,43.0,-3.0,-1005.0,2,0,0,1.6765470504760742,3.0751938819885254,6.461984157562256
1762512743.4822116,7.0,-18.0,-987.0,2,0,0,1.8877320289611816,3.0751938819885254,6.461984157562256
1762512743.5922854,-29.0,-3.0,-1016.0,2,0,0,2.107879638671875,3.0751938819885254,6.461984157562256
1762512743.7030463,-17.0,14.0,-1012.0,2,0,0,2.3294014930725098,3.0751938819885254,6.461984157562256
1762512743.8137515,-15.0,15.0,-941.0,1,0,0,2.4401066303253174,3.0751938819885254,6.461984157562256
1762512743.914262,34.0,-4.0,-973.0,0,0,0,2.4401066303253174,3.0751938819885254,6.461984157562256
1762512744.0234687,14.0,4.0,-1083.0,0,0,0,2.4401066303253174,3.0751938819885254,6.461984157562256
1762512744.1353524,-25.0,-3.0,-1001.0,0,0,0,2.4401066303253174,3.0751938819885254,6.461984157562256
1762512744.247106,15.0,-9.0,-1049.0,0,0,0,2.4401066303253174,3.0751938819885254,6.461984157562256
1762512744.3589375,13.0,-6.0,-997.0,0,0,0,2.4401066303253174,3.0751938819885254,6.461984157562256
1762512744.4637244,2.0,-21.0,-1014.0,0,0,0,2.4401066303253174,3.0751938819885254,6.461984157562256
1762512744.5761216,3.0,-6.0,-941.0,0,0,0,2.4401066303253174,3.0751938819885254,6.461984157562256
1762512744.6818542,9.0,-17.0,-1034.0,0,0,0,2.4401066303253174,3.0751938819885254,6.461984157562256
1762512744.7938125,-31.0,20.0,-973.0,0,0,0,2.4401066303253174,3.0751938819885254,6.461984157562256
1762512744.9070532,-25.0,13.0,-991.0,0,0,0,2.4401066303253174,3.0751938819885254,6.461984157562256
1762512745.011777,-11.0,2.0,-1079.0,0,0,0,2.4401066303253174,3.0751938819885254,6.461984157562256
1762512745.1247652,26.0,-4.0,-1038.0,0,0,0,2.4401066303253174,3.0751938819885254,6.461984157562256
1762512745.2286596,13.0,11.0,-990.0,0,0,0,2.4401066303253174,3.0751938819885254,6.461984157562256
1762512745.3363278,6.0,11.0,-930.0,0,0,0,2.4401066303253174,3.0751938819885254,6.461984157562256
1762512745.449586,-25.0,1.0,-989.0,0,0,0,2.4401066303253174,3.0751938819885254,6.461984157562256
1762512745.5623434,-5.0,-6.0,-986.0,0,0,0,2.4401066303253174,3.0751938819885254,6.461984157562256
1762512745.675605,-6.0,9.0,-937.0,0,0,0,2.4401066303253174,3.0751938819885254,6.461984157562256
1762512745.788897,-29.0,15.0,-1019.0,0,0,0,2.4401066303253174,3.0751938819885254,6.461984157562256
1762512745.902051,-8.0,-8.0,-1011.0,0,0,0,2.4401066303253174,3.0751938819885254,6.461984157562256
1762512746.0151596,-6.0,12.0,-964.0,0,0,0,2.4401066303253174,3.0751938819885254,6.461984157562256
1762512746.128154,-6.0,12.0,-964.0,0,0,0,2.4401066303253174,3.0751938819885254,6.461984157562256
1762512746.2408845,-34.0,2.0,-996.0,0,0,0,2.4401066303253174,3.0751938819885254,6.461984157562256
1762512746.3525007,50.0,10.0,-986.0,0,0,0,2.4401066303253174,3.0751938819885254,6.461984157562256
1762512746.4654732,19.0,-6.0,-997.0,0,0,0,2.4401066303253174,3.0751938819885254,6.461984157562256
1762512746.5777283,62.0,-18.0,-939.0,0,0,0,2.4401066303253174,3.0751938819885254,6.461984157562256
1762512746.6810787,11.0,0.0,-959.0,0,0,0,2.4401066303253174,3.0751938819885254,6.461984157562256
1762512746.791921,-22.0,-7.0,-978.0,0,0,0,2.4401066303253174,3.0751938819885254,6.461984157562256
1762512746.9036708,-22.0,0.0,-1025.0,0,0,0,2.4401066303253174,3.0751938819885254,6.461984157562256
1762512747.0154395,34.0,8.0,-1046.0,0,0,0,2.4401066303253174,3.0751938819885254,6.461984157562256
1762512747.1281419,41.0,13.0,-994.0,0,0,0,2.4401066303253174,3.0751938819885254,6.461984157562256
1762512747.2289994,-59.0,-7.0,-998.0,0,0,0,2.4401066303253174,3.0751938819885254,6.461984157562256
1762512747.340394,-42.0,-9.0,-1021.0,0,0,0,2.4401066303253174,3.0751938819885254,6.461984157562256
1762512747.4530346,-16.0,-8.0,-1080.0,0,0,0,2.4401066303253174,3.0751938819885254,6.461984157562256
1762512747.5646052,32.0,0.0,-982.0,0,0,0,2.4401066303253174,3.0751938819885254,6.461984157562256
1762512747.6756992,18.0,1.0,-1007.0,0,0,0,2.4401066303253174,3.0751938819885254,6.461984157562256
1762512747.7771902,25.0,-6.0,-1062.0,0,0,0,2.4401066303253174,3.0751938819885254,6.461984157562256
1762512747.8888373,-10.0,-5.0,-1010.0,0,0,0,2.4401066303253174,3.0751938819885254,6.461984157562256
1762512748.0015414,-31.0,12.0,-942.0,0,0,0,2.4401066303253174,3.0751938819885254,6.461984157562256
1762512748.1145556,40.0,4.0,-903.0,0,0,0,2.4401066303253174,3.0751938819885254,6.461984157562256
1762512748.2272718,48.0,11.0,-978.0,0,0,0,2.4401066303253174,3.0751938819885254,6.461984157562256
1762512748.3370032,-21.0,-17.0,-965.0,0,0,0,2.4401066303253174,3.0751938819885254,6.461984157562256
1762512748.4487643,-22.0,10.0,-1039.0,0,0,0,2.4401066303253174,3.0751938819885254,6.461984157562256
1762512748.561552,-1.0,-3.0,-963.0,0,0,0,2.4401066303253174,3.0751938819885254,6.461984157562256
1762512748.6742113,-19.0,-5.0,-1003.0,0,0,0,2.4401066303253174,3.0751938819885254,6.461984157562256
1762512748.7823,-19.0,-5.0,-1003.0,0,0,0,2.4401066303253174,3.0751938819885254,6.461984157562256
1762512748.886406,-37.0,-2.0,-1047.0,0,0,0,2.4401066303253174,3.0751938819885254,6.461984157562256
1762512748.9986184,0.0,14.0,-1005.0,0,0,0,2.4401066303253174,3.0751938819885254,6.461984157562256
1762512749.1094456,0.0,14.0,-1005.0,0,0,0,2.4401066303253174,3.0751938819885254,6.461984157562256
1762512749.2207997,-31.0,-2.0,-1038.0,0,0,0,2.4401066303253174,3.0751938819885254,6.461984157562256
1762512749.322863,-31.0,-2.0,-1038.0,0,0,0,2.4401066303253174,3.0751938819885254,6.461984157562256
1762512749.4268115,17.0,-7.0,-1036.0,0,0,0,2.4401066303253174,3.0751938819885254,6.461984157562256
1762512749.5390337,16.0,-37.0,-1020.0,0,0,0,2.4401066303253174,3.0751938819885254,6.461984157562256
1762512749.650044,16.0,-37.0,-1020.0,0,0,0,2.4401066303253174,3.0751938819885254,6.461984157562256
1762512749.76223,16.0,-37.0,-1020.0,0,0,0,2.4401066303253174,3.0751938819885254,6.461984157562256
1762512749.8759582,1.0,8.0,-983.0,0,0,0,2.4401066303253174,3.0751938819885254,6.461984157562256
1762512749.9874861,-1.0,25.0,-985.0,0,0,0,2.4401066303253174,3.0751938819885254,6.461984157562256
1762512750.1006157,-20.0,-7.0,-1054.0,0,0,0,2.4401066303253174,3.0751938819885254,6.461984157562256
1762512750.2111475,27.0,9.0,-1012.0,0,0,0,2.4401066303253174,3.0751938819885254,6.461984157562256
1762512750.3228087,-46.0,21.0,-1014.0,0,0,0,2.4401066303253174,3.0751938819885254,6.461984157562256
1762512750.4297965,26.0,-42.0,-1009.0,0,0,0,2.4401066303253174,3.0751938819885254,6.461984157562256
1762512750.5429852,9.0,-3.0,-964.0,0,0,0,2.4401066303253174,3.0751938819885254,6.461984157562256
1762512750.6541972,21.0,-5.0,-945.0,0,0,0,2.4401066303253174,3.0751938819885254,6.461984157562256
1762512750.7673836,16.0,29.0,-955.0,0,0,0,2.4401066303253174,3.0751938819885254,6.461984157562256
1762512750.8799748,21.0,4.0,-1010.0,0,0,0,2.4401066303253174,3.0751938819885254,6.461984157562256
1762512750.9948735,29.0,-8.0,-961.0,0,0,0,2.4401066303253174,3.0751938819885254,6.461984157562256
1762512751.107087,-7.0,10.0,-1009.0,0,0,0,2.4401066303253174,3.0751938819885254,6.461984157562256
1762512751.2200122,14.0,-28.0,-1018.0,0,0,0,2.4401066303253174,3.0751938819885254,6.461984157562256
1762512751.3309386,14.0,-28.0,-1018.0,0,0,0,2.4401066303253174,3.0751938819885254,6.461984157562256
1762512751.4441068,-29.0,5.0,-988.0,0,0,0,2.4401066303253174,3.0751938819885254,6.461984157562256
1762512751.5560756,-32.0,29.0,-1008.0,0,0,0,2.4401066303253174,3.0751938819885254,6.461984157562256
1762512751.6692758,-17.0,-2.0,-1031.0,0,0,0,2.4401066303253174,3.0751938819885254,6.461984157562256
1762512751.7821136,13.0,3.0,-986.0,0,0,0,2.4401066303253174,3.0751938819885254,6.461984157562256
1762512751.8947077,29.0,0.0,-973.0,0,0,0,2.4401066303253174,3.0751938819885254,6.461984157562256
1762512751.9966578,-20.0,-8.0,-960.0,0,0,0,2.4401066303253174,3.0751938819885254,6.461984157562256
1762512752.1101294,11.0,-9.0,-1006.0,0,0,0,2.4401066303253174,3.0751938819885254,6.461984157562256
1762512752.2223334,-19.0,-2.0,-1001.0,0,0,0,2.4401066303253174,3.0751938819885254,6.461984157562256
1762512752.3355093,54.0,-41.0,-961.0,0,0,0,2.4401066303253174,3.0751938819885254,6.461984157562256
1762512752.447417,-33.0,7.0,-988.0,0,0,0,2.4401066303253174,3.0751938819885254,6.461984157562256
1762512752.5552046,-15.0,22.0,-962.0,0,0,0,2.4401066303253174,3.0751938819885254,6.461984157562256
1762512752.6672812,13.0,-3.0,-943.0,0,0,0,2.4401066303253174,3.0751938819885254,6.461984157562256
1762512752.780344,1.0,-13.0,-973.0,0,0,0,2.4401066303253174,3.0751938819885254,6.461984157562256
1762512752.8925602,3.0,-3.0,-1045.0,0,0,0,2.4401066303253174,3.0751938819885254,6.461984157562256
1762512753.0057805,-24.0,14.0,-990.0,0,0,0,2.4401066303253174,3.0751938819885254,6.461984157562256
1762512753.1069994,0.0,-27.0,-965.0,0,0,0,2.4401066303253174,3.0751938819885254,6.461984157562256
1762512753.219983,32.0,-1.0,-991.0,0,0,0,2.4401066303253174,3.0751938819885254,6.461984157562256
1762512753.3319924,-30.0,10.0,-1007.0,0,0,0,2.4401066303253174,3.0751938819885254,6.461984157562256
1762512753.4436297,-37.0,-18.0,-1016.0,0,0,0,2.4401066303253174,3.0751938819885254,6.461984157562256
1762512753.5520425,-30.0,0.0,-1019.0,0,0,0,2.4401066303253174,3.0751938819885254,6.461984157562256
1762512753.6542,16.0,-4.0,-1004.0,0,0,0,2.4401066303253174,3.0751938819885254,6.461984157562256
1762512753.7647688,-7.0,-14.0,-982.0,0,0,0,2.4401066303253174,3.0751938819885254,6.461984157562256
1762512753.8764734,-10.0,-1.0,-992.0,0,0,0,2.4401066303253174,3.0751938819885254,6.461984157562256
1762512753.9801106,-1.0,-9.0,-973.0,0,0,0,2.4401066303253174,3.0751938819885254,6.461984157562256
1762512754.0818605,-16.0,13.0,-977.0,0,0,0,2.4401066303253174,3.0751938819885254,6.461984157562256
1762512754.193669,6.0,-12.0,-1009.0,0,0,0,2.4401066303253174,3.0751938819885254,6.461984157562256
1762512754.3068779,23.0,42.0,-946.0,0,0,0,2.4401066303253174,3.0751938819885254,6.461984157562256
1762512754.4199035,10.0,0.0,-973.0,0,0,0,2.4401066303253174,3.0751938819885254,6.461984157562256
1762512754.5271382,-11.0,-14.0,-992.0,0,-1,0,2.4401066303253174,2.96795916557312,6.461984157562256
1762512754.631118,-11.0,-14.0,-992.0,0,-1,0,2.4401066303253174,2.8639793395996094,6.461984157562256
1762512754.7427797,-19.0,-27.0,-1020.0,0,-2,0,2.4401066303253174,2.640655994415283,6.461984157562256
1762512754.8467245,-10.0,-17.0,-1004.0,0,-2,0,2.4401066303253174,2.4327664375305176,6.461984157562256
1762512754.9591758,-26.0,-10.0,-1010.0,0,-2,0,2.4401066303253174,2.2078638076782227,6.461984157562256
1762512755.0632393,-9.0,-21.0,-997.0,0,-2,0,2.4401066303253174,1.9997367858886719,6.461984157562256
1762512755.1755712,-6.0,-5.0,-973.0,0,-2,0,2.4401066303253174,1.7750730514526367,6.461984157562256
1762512755.2802043,-19.0,-26.0,-1012.0,0,-2,0,2.4401066303253174,1.5658068656921387,6.461984157562256
1762512755.3925586,-40.0,-18.0,-1021.0,0,-2,0,2.4401066303253174,1.3410983085632324,6.461984157562256
1762512755.5055437,-29.0,-3.0,-961.0,0,-2,0,2.4401066303253174,1.1151280403137207,6.461984157562256
1762512755.6188588,10.0,1.0,-939.0,0,-2,0,2.4401066303253174,0.8884978294372559,6.461984157562256
1762512755.723518,-28.0,-8.0,-1006.0,0,-2,0,2.4401066303253174,0.6791796684265137,6.461984157562256
1762512755.8365653,3.0,-26.0,-961.0,0,-2,0,2.4401066303253174,0.45308494567871094,6.461984157562256
1762512755.9498281,16.0,-42.0,-905.0,-1,-2,0,2.326843738555908,0.22655916213989258,6.461984157562256
1762512756.0627277,-16.0,-21.0,-979.0,0,-2,0,2.326843738555908,0.0007600784301757812,6.461984157562256
1762512756.1753995,19.0,-14.0,-933.0,0,-2,0,2.326843738555908,-0.22458362579345703,6.461984157562256
1762512756.2880123,7.0,-47.0,-1051.0,0,-1,0,2.326843738555908,-0.33719635009765625,6.461984157562256
1762512756.3997452,-40.0,-15.0,-1020.0,0,0,0,2.326843738555908,-0.33719635009765625,6.461984157562256
1762512756.512193,-63.0,8.0,-976.0,0,0,0,2.326843738555908,-0.33719635009765625,6.461984157562256
1762512756.612948,-7.0,8.0,-1073.0,0,0,0,2.326843738555908,-0.33719635009765625,6.461984157562256
1762512756.7243414,4.0,-23.0,-980.0,0,0,0,2.326843738555908,-0.33719635009765625,6.461984157562256
1762512756.83729,51.0,-7.0,-1099.0,0,0,0,2.326843738555908,-0.33719635009765625,6.461984157562256
1762512756.9477541,41.0,-32.0,-1022.0,0,0,0,2.326843738555908,-0.33719635009765625,6.461984157562256
1762512757.060032,36.0,-2.0,-1017.0,0,0,0,2.326843738555908,-0.33719635009765625,6.461984157562256
1762512757.1732442,-2.0,-30.0,-1026.0,0,0,0,2.326843738555908,-0.33719635009765625,6.461984157562256
1762512757.2781017,22.0,7.0,-1018.0,0,0,0,2.326843738555908,-0.33719635009765625,6.461984157562256
1762512757.3904777,-12.0,1.0,-1011.0,0,0,0,2.326843738555908,-0.33719635009765625,6.461984157562256
1762512757.4951122,-25.0,2.0,-1004.0,0,0,0,2.326843738555908,-0.33719635009765625,6.461984157562256
1762512757.607949,-3.0,-12.0,-1012.0,0,0,0,2.326843738555908,-0.33719635009765625,6.461984157562256
1762512757.7124994,1.0,9.0,-991.0,0,0,0,2.326843738555908,-0.33719635009765625,6.461984157562256
1762512757.8147123,16.0,-12.0,-994.0,0,0,0,2.326843738555908,-0.33719635009765625,6.461984157562256
1762512757.9264386,8.0,-19.0,-1013.0,0,0,0,2.326843738555908,-0.33719635009765625,6.461984157562256
1762512758.0391254,-4.0,-28.0,-906.0,0,0,0,2.326843738555908,-0.33719635009765625,6.461984157562256
1762512758.1522238,-24.0,-8.0,-996.0,0,0,0,2.326843738555908,-0.33719635009765625,6.461984157562256
1762512758.2652655,-9.0,-2.0,-1033.0,0,0,0,2.326843738555908,-0.33719635009765625,6.461984157562256
1762512758.3730304,15.0,2.0,-996.0,0,0,0,2.326843738555908,-0.33719635009765625,6.461984157562256
1762512758.4851258,0.0,12.0,-1049.0,0,0,0,2.326843738555908,-0.33719635009765625,6.461984157562256
1762512758.5977974,-50.0,-25.0,-1030.0,0,0,0,2.326843738555908,-0.33719635009765625,6.461984157562256
1762512758.7108815,9.0,-18.0,-1126.0,0,0,0,2.326843738555908,-0.33719635009765625,6.461984157562256
1762512758.8228886,-2.0,-23.0,-1006.0,0,0,0,2.326843738555908,-0.33719635009765625,6.461984157562256
1762512758.9371283,16.0,3.0,-1014.0,0,0,0,2.326843738555908,-0.33719635009765625,6.461984157562256
1762512759.0496697,-50.0,3.0,-1012.0,0,0,0,2.326843738555908,-0.33719635009765625,6.461984157562256
1762512759.1606472,-50.0,3.0,-1012.0,0,0,0,2.326843738555908,-0.33719635009765625,6.461984157562256
1762512759.272457,-38.0,3.0,-998.0,0,0,0,2.326843738555908,-0.33719635009765625,6.461984157562256
1762512759.3813872,14.0,-12.0,-1022.0,0,0,0,2.326843738555908,-0.33719635009765625,6.461984157562256
1762512759.4930484,45.0,-18.0,-973.0,0,0,0,2.326843738555908,-0.33719635009765625,6.461984157562256
1762512759.6042523,5.0,-19.0,-971.0,0,0,0,2.326843738555908,-0.33719635009765625,6.461984157562256
1762512759.715251,-6.0,-21.0,-980.0,0,0,0,2.326843738555908,-0.33719635009765625,6.461984157562256
1762512759.8278515,27.0,6.0,-980.0,0,0,0,2.326843738555908,-0.33719635009765625,6.461984157562256
1762512759.9406097,75.0,-25.0,-1002.0,0,0,0,2.326843738555908,-0.33719635009765625,6.461984157562256
1762512760.0533254,20.0,-33.0,-1044.0,0,0,0,2.326843738555908,-0.33719635009765625,6.461984157562256
1762512760.165823,8.0,-49.0,-1029.0,0,0,0,2.326843738555908,-0.33719635009765625,6.461984157562256
1762512760.2783654,-30.0,-10.0,-987.0,0,0,0,2.326843738555908,-0.33719635009765625,6.461984157562256
1762512760.389577,12.0,-23.0,-994.0,0,0,0,2.326843738555908,-0.33719635009765625,6.461984157562256
1762512760.4964418,-7.0,-8.0,-1001.0,0,0,0,2.326843738555908,-0.33719635009765625,6.461984157562256
1762512760.6089919,19.0,-9.0,-970.0,0,0,0,2.326843738555908,-0.33719635009765625,6.461984157562256
1762512760.7212715,-10.0,3.0,-986.0,0,0,0,2.326843738555908,-0.33719635009765625,6.461984157562256
1762512760.8340976,0.0,-26.0,-1016.0,0,0,0,2.326843738555908,-0.33719635009765625,6.461984157562256
1762512760.946301,5.0,-8.0,-919.0,0,0,0,2.326843738555908,-0.33719635009765625,6.461984157562256
1762512761.0619848,17.0,-33.0,-1081.0,0,0,0,2.326843738555908,-0.33719635009765625,6.461984157562256
1762512761.1749904,8.0,-16.0,-1033.0,0,0,0,2.326843738555908,-0.33719635009765625,6.461984157562256
1762512761.2866821,-7.0,-13.0,-1023.0,0,0,0,2.326843738555908,-0.33719635009765625,6.461984157562256
1762512761.3995168,13.0,-11.0,-1050.0,0,0,0,2.326843738555908,-0.33719635009765625,6.461984157562256
1762512761.512331,14.0,-32.0,-1027.0,0,0,0,2.326843738555908,-0.33719635009765625,6.461984157562256
1762512761.6252122,30.0,-18.0,-995.0,0,0,0,2.326843738555908,-0.33719635009765625,6.461984157562256
1762512761.7380981,-3.0,-4.0,-969.0,0,0,0,2.326843738555908,-0.33719635009765625,6.461984157562256
1762512761.8509848,-40.0,3.0,-1016.0,0,0,0,2.326843738555908,-0.33719635009765625,6.461984157562256
1762512761.9632988,12.0,-17.0,-1019.0,0,0,0,2.326843738555908,-0.33719635009765625,6.461984157562256
1762512762.076417,37.0,13.0,-1026.0,0,0,0,2.326843738555908,-0.33719635009765625,6.461984157562256
1762512762.1871748,24.0,-35.0,-984.0,0,0,0,2.326843738555908,-0.33719635009765625,6.461984157562256
1762512762.2991934,-4.0,-39.0,-987.0,0,0,0,2.326843738555908,-0.33719635009765625,6.461984157562256
1762512762.412085,0.0,5.0,-964.0,0,0,0,2.326843738555908,-0.33719635009765625,6.461984157562256
1762512762.5244827,37.0,-6.0,-1016.0,0,0,0,2.326843738555908,-0.33719635009765625,6.461984157562256
1762512762.6381972,31.0,26.0,-998.0,0,0,0,2.326843738555908,-0.33719635009765625,6.461984157562256
1762512762.7502923,93.0,18.0,-982.0,0,0,0,2.326843738555908,-0.33719635009765625,6.461984157562256
1762512762.8629506,28.0,5.0,-1006.0,0,0,0,2.326843738555908,-0.33719635009765625,6.461984157562256
1762512762.976949,4.0,-17.0,-1001.0,0,0,0,2.326843738555908,-0.33719635009765625,6.461984157562256
1762512763.0894077,55.0,-42.0,-1018.0,0,0,0,2.326843738555908,-0.33719635009765625,6.461984157562256
1762512763.1951854,-15.0,3.0,-997.0,0,0,0,2.326843738555908,-0.33719635009765625,6.461984157562256
1762512763.3065813,54.0,0.0,-997.0,0,0,0,2.326843738555908,-0.33719635009765625,6.461984157562256
1762512763.4181051,9.0,-21.0,-1039.0,0,0,0,2.326843738555908,-0.33719635009765625,6.461984157562256
1762512763.5313857,27.0,-18.0,-1014.0,0,0,0,2.326843738555908,-0.33719635009765625,6.461984157562256
1762512763.6448097,-17.0,12.0,-1005.0,0,0,0,2.326843738555908,-0.33719635009765625,6.461984157562256
1762512763.757359,11.0,11.0,-972.0,0,0,0,2.326843738555908,-0.33719635009765625,6.461984157562256
1762512763.869055,-2.0,-18.0,-992.0,0,0,0,2.326843738555908,-0.33719635009765625,6.461984157562256
1762512763.982127,8.0,13.0,-925.0,0,0,0,2.326843738555908,-0.33719635009765625,6.461984157562256
1762512764.0947728,40.0,-4.0,-990.0,0,0,0,2.326843738555908,-0.33719635009765625,6.461984157562256
1762512764.2076936,31.0,-31.0,-1026.0,0,0,0,2.326843738555908,-0.33719635009765625,6.461984157562256
1762512764.321014,31.0,-31.0,-1026.0,0,0,0,2.326843738555908,-0.33719635009765625,6.461984157562256
1762512764.4330752,1.0,5.0,-975.0,0,0,0,2.326843738555908,-0.33719635009765625,6.461984157562256
1762512764.5443869,32.0,-1.0,-1023.0,0,0,0,2.326843738555908,-0.33719635009765625,6.461984157562256
1762512764.6575172,-12.0,-8.0,-1023.0,0,0,0,2.326843738555908,-0.33719635009765625,6.461984157562256
1762512764.7612123,35.0,4.0,-1037.0,0,0,0,2.326843738555908,-0.33719635009765625,6.461984157562256
1762512764.8740659,27.0,-5.0,-1011.0,0,0,0,2.326843738555908,-0.33719635009765625,6.461984157562256
1762512764.986673,41.0,-7.0,-1029.0,0,0,0,2.326843738555908,-0.33719635009765625,6.461984157562256
1762512765.0988271,22.0,19.0,-947.0,0,0,0,2.326843738555908,-0.33719635009765625,6.461984157562256
1762512765.2109497,0.0,1.0,-1012.0,0,0,0,2.326843738555908,-0.33719635009765625,6.461984157562256
1762512765.3200803,51.0,-29.0,-958.0,0,0,0,2.326843738555908,-0.33719635009765625,6.461984157562256
1762512765.4317672,-9.0,37.0,-988.0,0,0,0,2.326843738555908,-0.33719635009765625,6.461984157562256
1762512765.5444164,10.0,1.0,-1051.0,0,0,0,2.326843738555908,-0.33719635009765625,6.461984157562256
1762512765.6566691,32.0,3.0,-1008.0,0,0,0,2.326843738555908,-0.33719635009765625,6.461984157562256
1762512765.7603636,19.0,-16.0,-967.0,0,0,0,2.326843738555908,-0.33719635009765625,6.461984157562256
1762512765.8724988,-16.0,-7.0,-1002.0,0,0,0,2.326843738555908,-0.33719635009765625,6.461984157562256
1762512765.9846795,5.0,-15.0,-990.0,0,0,0,2.326843738555908,-0.33719635009765625,6.461984157562256
1762512766.0958533,-18.0,0.0,-998.0,0,0,0,2.326843738555908,-0.33719635009765625,6.461984157562256
1762512766.2089088,20.0,-24.0,-1014.0,0,0,0,2.326843738555908,-0.33719635009765625,6.461984157562256
1762512766.3230832,43.0,1.0,-1047.0,0,0,0,2.326843738555908,-0.33719635009765625,6.461984157562256
1762512766.4362712,13.0,27.0,-1006.0,0,0,0,2.326843738555908,-0.33719635009765625,6.461984157562256
1762512766.5372436,2.0,0.0,-1011.0,0,0,0,2.326843738555908,-0.33719635009765625,6.461984157562256
1762512766.6386936,48.0,1.0,-989.0,0,0,0,2.326843738555908,-0.33719635009765625,6.461984157562256
1762512766.7518752,10.0,-15.0,-1011.0,0,0,0,2.326843738555908,-0.33719635009765625,6.461984157562256
1762512766.856045,27.0,-13.0,-990.0,0,0,0,2.326843738555908,-0.33719635009765625,6.461984157562256
1762512766.9604783,-30.0,-9.0,-963.0,0,0,0,2.326843738555908,-0.33719635009765625,6.461984157562256
1762512767.0641413,-30.0,-9.0,-963.0,0,0,0,2.326843738555908,-0.33719635009765625,6.461984157562256
1762512767.1769438,17.0,-38.0,-953.0,0,0,0,2.326843738555908,-0.33719635009765625,6.461984157562256
1762512767.282401,-17.0,-21.0,-899.0,0,0,0,2.326843738555908,-0.33719635009765625,6.461984157562256
1762512767.394151,-3.0,-1.0,-927.0,0,0,-1,2.326843738555908,-0.33719635009765625,6.350234270095825
1762512767.5071433,45.0,1.0,-917.0,0,0,-1,2.326843738555908,-0.33719635009765625,6.237241983413696
1762512767.6117299,-8.0,2.0,-943.0,0,0,-2,2.326843738555908,-0.33719635009765625,6.028068780899048
1762512767.7249188,10.0,18.0,-966.0,0,0,-3,2.326843738555908,-0.33719635009765625,5.688501834869385
1762512767.8292365,15.0,15.0,-941.0,0,0,-4,2.326843738555908,-0.33719635009765625,5.271231174468994
1762512767.9451833,1.0,-15.0,-892.0,0,0,-4,2.326843738555908,-0.33719635009765625,4.807444095611572
1762512768.0588827,1.0,-15.0,-892.0,0,0,-4,2.326843738555908,-0.33719635009765625,4.352646350860596
1762512768.1719623,18.0,7.0,-964.0,0,0,-5,2.326843738555908,-0.33719635009765625,3.7872486114501953
1762512768.285218,-32.0,-3.0,-986.0,0,0,-5,2.326843738555908,-0.33719635009765625,3.2209699153900146
1762512768.3974166,8.0,5.0,-1013.0,0,0,-5,2.326843738555908,-0.33719635009765625,2.6599769592285156
1762512768.5109534,-22.0,-17.0,-972.0,0,0,-5,2.326843738555908,-0.33719635009765625,2.0922927856445312
1762512768.6241925,-10.0,25.0,-1033.0,0,0,-5,2.326843738555908,-0.33719635009765625,1.5260975360870361
1762512768.7373884,-8.0,-11.0,-977.0,0,0,-4,2.326843738555908,-0.33719635009765625,1.0733139514923096
1762512768.850405,10.0,12.0,-1043.0,0,0,-4,2.326843738555908,-0.33719635009765625,0.6212475299835205
1762512768.9588962,6.0,17.0,-1040.0,0,0,-4,2.326843738555908,-0.33719635009765625,0.18728280067443848
1762512769.0720277,-15.0,-34.0,-1156.0,0,0,-3,2.326843738555908,-0.33719635009765625,-0.15211176872253418
1762512769.1843147,13.0,9.0,-1159.0,0,0,-2,2.326843738555908,-0.33719635009765625,-0.37668585777282715
1762512769.2969234,24.0,11.0,-1076.0,0,0,0,2.326843738555908,-0.33719635009765625,-0.37668585777282715
1762512769.4089165,-15.0,-27.0,-971.0,0,0,0,2.326843738555908,-0.33719635009765625,-0.37668585777282715
1762512769.5211604,-15.0,-24.0,-937.0,0,0,0,2.326843738555908,-0.33719635009765625,-0.37668585777282715
1762512769.632543,7.0,-9.0,-963.0,0,0,0,2.326843738555908,-0.33719635009765625,-0.37668585777282715
1762512769.7437794,7.0,-32.0,-934.0,0,0,0,2.326843738555908,-0.33719635009765625,-0.37668585777282715
1762512769.8559186,11.0,-12.0,-901.0,0,0,0,2.326843738555908,-0.33719635009765625,-0.37668585777282715
1762512769.9691598,17.0,10.0,-978.0,0,0,0,2.326843738555908,-0.33719635009765625,-0.37668585777282715
1762512770.0706635,7.0,-2.0,-995.0,0,0,0,2.326843738555908,-0.33719635009765625,-0.37668585777282715
1762512770.1837633,0.0,3.0,-1005.0,0,0,0,2.326843738555908,-0.33719635009765625,-0.37668585777282715
1762512770.2956533,0.0,8.0,-994.0,0,0,0,2.326843738555908,-0.33719635009765625,-0.37668585777282715
1762512770.4080005,0.0,3.0,-991.0,0,0,0,2.326843738555908,-0.33719635009765625,-0.37668585777282715
1762512770.5161605,-7.0,4.0,-996.0,0,0,0,2.326843738555908,-0.33719635009765625,-0.37668585777282715
1762512770.6273935,9.0,-4.0,-979.0,0,0,0,2.326843738555908,-0.33719635009765625,-0.37668585777282715
1762512770.7392814,-6.0,-1.0,-1004.0,0,0,0,2.326843738555908,-0.33719635009765625,-0.37668585777282715
1762512770.852574,-10.0,14.0,-992.0,0,0,0,2.326843738555908,-0.33719635009765625,-0.37668585777282715
1762512770.9642782,-5.0,10.0,-997.0,0,0,0,2.326843738555908,-0.33719635009765625,-0.37668585777282715
1762512771.078945,-6.0,4.0,-996.0,0,0,0,2.326843738555908,-0.33719635009765625,-0.37668585777282715
1762512771.1917555,-12.0,-5.0,-998.0,0,0,0,2.326843738555908,-0.33719635009765625,-0.37668585777282715
1762512771.304511,-4.0,2.0,-1007.0,0,0,0,2.326843738555908,-0.33719635009765625,-0.37668585777282715
1762512771.4165862,5.0,11.0,-997.0,0,0,0,2.326843738555908,-0.33719635009765625,-0.37668585777282715
1762512771.5283985,13.0,14.0,-999.0,0,0,1,2.326843738555908,-0.33719635009765625,-0.2648735046386719
1762512771.6446068,-11.0,11.0,-1004.0,0,0,1,2.326843738555908,-0.33719635009765625,-0.148665189743042
1762512771.7574253,-8.0,6.0,-1005.0,0,0,1,2.326843738555908,-0.33719635009765625,-0.035846710205078125
1762512771.8696887,-4.0,2.0,-998.0,0,0,1,2.326843738555908,-0.33719635009765625,0.0764167308807373
1762512771.9815304,-4.0,6.0,-1001.0,0,0,1,2.326843738555908,-0.33719635009765625,0.18825840950012207
1762512772.092997,-10.0,-3.0,-1002.0,0,0,1,2.326843738555908,-0.33719635009765625,0.2997250556945801
1762512772.1949015,-2.0,5.0,-998.0,0,0,1,2.326843738555908,-0.33719635009765625,0.4016294479370117
1762512772.3070245,2.0,0.0,-997.0,0,0,1,2.326843738555908,-0.33719635009765625,0.5137524604797363
1762512772.4125626,-2.0,3.0,-998.0,0,0,0,2.326843738555908,-0.33719635009765625,0.5137524604797363
1762512772.5275748,-3.0,6.0,-998.0,0,0,0,2.326843738555908,-0.33719635009765625,0.5137524604797363
1762512772.6397078,-1.0,3.0,-994.0,0,0,0,2.326843738555908,-0.33719635009765625,0.5137524604797363
1762512772.7508388,7.0,2.0,-1000.0,0,0,0,2.326843738555908,-0.33719635009765625,0.5137524604797363
1762512772.861709,0.0,2.0,-997.0,0,0,0,2.326843738555908,-0.33719635009765625,0.5137524604797363
1762512772.9732733,-2.0,4.0,-1002.0,0,0,0,2.326843738555908,-0.33719635009765625,0.5137524604797363
1762512773.076533,-5.0,4.0,-995.0,0,0,0,2.326843738555908,-0.33719635009765625,0.5137524604797363
1762512773.1802812,-2.0,1.0,-999.0,0,0,0,2.326843738555908,-0.33719635009765625,0.5137524604797363
1762512773.2913294,-4.0,2.0,-997.0,0,0,0,2.326843738555908,-0.33719635009765625,0.5137524604797363
1762512773.3944285,-2.0,5.0,-999.0,0,0,0,2.326843738555908,-0.33719635009765625,0.5137524604797363
1762512773.5063915,-3.0,2.0,-999.0,0,0,0,2.326843738555908,-0.33719635009765625,0.5137524604797363
1762512773.6093087,-3.0,2.0,-999.0,0,0,0,2.326843738555908,-0.33719635009765625,0.5137524604797363
1762512773.7142131,-4.0,4.0,-998.0,0,0,0,2.326843738555908,-0.33719635009765625,0.5137524604797363
1762512773.8241677,-3.0,3.0,-998.0,0,0,0,2.326843738555908,-0.33719635009765625,0.5137524604797363
1762512773.935622,-2.0,3.0,-999.0,0,0,0,2.326843738555908,-0.33719635009765625,0.5137524604797363
1762512774.0468102,-3.0,2.0,-998.0,0,0,0,2.326843738555908,-0.33719635009765625,0.5137524604797363
1762512774.1576734,-2.0,2.0,-1000.0,0,0,0,2.326843738555908,-0.33719635009765625,0.5137524604797363
1762512774.2637348,-2.0,2.0,-1000.0,0,0,0,2.326843738555908,-0.33719635009765625,0.5137524604797363
