Time,Ax,Ay,Az,Sx,Sy,Sz,x,y,z
1761038860.9141407,0.0,-3.0,-1001.0,0,0,0,0.0,0.0,0.0
1761038861.015453,-2.0,-2.0,-1000.0,0,0,0,0.0,0.0,0.0
1761038861.1160805,-1.0,-4.0,-999.0,0,0,0,0.0,0.0,0.0
1761038861.2165327,-3.0,-2.0,-1001.0,0,0,0,0.0,0.0,0.0
1761038861.3172734,-1.0,-2.0,-1001.0,0,0,0,0.0,0.0,0.0
1761038861.4178185,0.0,-2.0,-1000.0,0,0,0,0.0,0.0,0.0
1761038861.5180259,-4.0,-3.0,-999.0,0,0,0,0.0,0.0,0.0
1761038861.6186554,-4.0,-2.0,-999.0,0,0,0,0.0,0.0,0.0
1761038861.7190518,0.0,-1.0,-999.0,0,0,0,0.0,0.0,0.0
1761038861.8193104,-2.0,-3.0,-1000.0,0,0,0,0.0,0.0,0.0
1761038861.9197648,-1.0,-3.0,-998.0,0,0,0,0.0,0.0,0.0
1761038862.0199726,-1.0,-4.0,-999.0,0,0,0,0.0,0.0,0.0
1761038862.1206534,-2.0,-2.0,-999.0,0,0,0,0.0,0.0,0.0
1761038862.2211251,-1.0,-3.0,-1002.0,0,0,0,0.0,0.0,0.0
1761038862.3214881,-2.0,-2.0,-999.0,0,0,0,0.0,0.0,0.0
1761038862.4219491,-2.0,-2.0,-999.0,0,0,0,0.0,0.0,0.0
1761038862.5227575,-1.0,-3.0,-1001.0,0,0,0,0.0,0.0,0.0
1761038862.6232274,-1.0,-2.0,-999.0,0,0,0,0.0,0.0,0.0
1761038862.7236652,0.0,-1.0,-1001.0,0,0,0,0.0,0.0,0.0
1761038862.8241289,-2.0,-2.0,-999.0,0,0,0,0.0,0.0,0.0
1761038862.924465,-1.0,-3.0,-1000.0,0,0,0,0.0,0.0,0.0
1761038863.025241,0.0,-3.0,-1001.0,0,0,0,0.0,0.0,0.0
1761038863.1255918,-1.0,-2.0,-1001.0,0,0,0,0.0,0.0,0.0
1761038863.2260342,-4.0,-4.0,-1003.0,0,0,0,0.0,0.0,0.0
1761038863.3264012,6.0,-9.0,-997.0,0,0,0,0.0,0.0,0.0
1761038863.4270282,-4.0,-5.0,-998.0,0,0,0,0.0,0.0,0.0
1761038863.5278134,0.0,-6.0,-1002.0,0,0,0,0.0,0.0,0.0
1761038863.6283677,-2.0,0.0,-1000.0,0,0,0,0.0,0.0,0.0
1761038863.7286417,-32.0,8.0,-1066.0,0,0,0,0.0,0.0,0.0
1761038863.82921,12.0,-9.0,-1112.0,0,0,0,0.0,0.0,0.0
1761038863.929856,-11.0,-4.0,-1256.0,0,0,2,0.0,0.0,0.2012920379638672
1761038864.030494,-13.0,7.0,-1156.0,0,0,3,0.0,0.0,0.5032057762145996
1761038864.130726,5.0,-25.0,-1093.0,0,0,5,0.0,0.0,1.004366397857666
1761038864.231362,4.0,12.0,-1022.0,0,0,6,0.0,0.0,1.608182430267334
1761038864.3317504,26.0,12.0,-998.0,0,0,6,0.0,0.0,2.210512161254883
1761038864.4323127,-3.0,17.0,-985.0,0,0,6,0.0,0.0,2.8138861656188965
1761038864.532646,-33.0,10.0,-972.0,0,0,6,0.0,0.0,3.4158854484558105
1761038864.6330607,-2.0,4.0,-938.0,0,0,6,0.0,0.0,4.018373966217041
1761038864.7337933,20.0,-5.0,-935.0,0,0,5,0.0,0.0,4.522036790847778
1761038864.8348553,-4.0,28.0,-940.0,0,0,5,0.0,0.0,5.027347087860107
1761038864.9354649,20.0,-5.0,-933.0,0,0,4,0.0,0.0,5.429785251617432
1761038865.035706,16.0,-6.0,-927.0,0,0,4,0.0,0.0,5.830749988555908
1761038865.1362479,0.0,21.0,-945.0,0,0,3,0.0,0.0,6.132375478744507
1761038865.2369757,-5.0,1.0,-908.0,0,0,2,0.0,0.0,6.333831071853638
1761038865.337293,16.0,-13.0,-947.0,0,0,1,0.0,0.0,6.43414831161499
1761038865.438397,18.0,-2.0,-957.0,0,0,1,0.0,0.0,6.535252332687378
1761038865.5387273,15.0,7.0,-985.0,0,0,1,0.0,0.0,6.635582685470581
1761038865.6392632,-2.0,6.0,-984.0,0,0,0,0.0,0.0,6.635582685470581
1761038865.7396884,33.0,1.0,-999.0,0,0,0,0.0,0.0,6.635582685470581
1761038865.8402548,14.0,9.0,-1018.0,0,0,0,0.0,0.0,6.635582685470581
1761038865.9405713,1.0,-6.0,-1006.0,0,0,0,0.0,0.0,6.635582685470581
1761038866.0411985,0.0,-16.0,-1003.0,0,0,0,0.0,0.0,6.635582685470581
1761038866.141814,-11.0,18.0,-1021.0,0,0,0,0.0,0.0,6.635582685470581
1761038866.2426114,21.0,-6.0,-997.0,0,0,1,0.0,0.0,6.736380100250244
1761038866.343628,-6.0,-18.0,-1001.0,0,0,1,0.0,0.0,6.837396621704102
1761038866.443888,-6.0,6.0,-1014.0,0,0,1,0.0,0.0,6.93765664100647
1761038866.5443022,-19.0,3.0,-979.0,0,0,1,0.0,0.0,7.038070917129517
1761038866.644846,5.0,-7.0,-1013.0,0,0,1,0.0,0.0,7.138614654541016
1761038866.745231,23.0,3.0,-990.0,0,0,1,0.0,0.0,7.238999605178833
1761038866.8456137,14.0,-5.0,-993.0,0,0,1,0.0,0.0,7.3393824100494385
1761038866.9460795,12.0,-4.0,-959.0,0,0,1,0.0,0.0,7.439848184585571
1761038867.04635,26.0,2.0,-991.0,0,0,0,0.0,0.0,7.439848184585571
1761038867.1472087,-7.0,-9.0,-978.0,0,0,0,0.0,0.0,7.439848184585571
1761038867.247853,16.0,2.0,-1002.0,0,0,0,0.0,0.0,7.439848184585571
1761038867.3483367,-29.0,30.0,-994.0,0,0,0,0.0,0.0,7.439848184585571
1761038867.448638,-15.0,11.0,-965.0,0,0,0,0.0,0.0,7.439848184585571
1761038867.549204,0.0,-13.0,-987.0,0,0,0,0.0,0.0,7.439848184585571
1761038867.650132,-28.0,-3.0,-995.0,0,0,0,0.0,0.0,7.439848184585571
1761038867.7505093,21.0,2.0,-1009.0,0,0,0,0.0,0.0,7.439848184585571
1761038867.8510985,-40.0,17.0,-1004.0,0,0,0,0.0,0.0,7.439848184585571
1761038867.9515061,7.0,10.0,-998.0,0,0,0,0.0,0.0,7.439848184585571
1761038868.051728,-23.0,22.0,-1000.0,0,0,0,0.0,0.0,7.439848184585571
1761038868.1524448,26.0,-10.0,-990.0,0,0,0,0.0,0.0,7.439848184585571
1761038868.253328,13.0,-10.0,-976.0,0,0,0,0.0,0.0,7.439848184585571
1761038868.3541243,-31.0,5.0,-988.0,0,0,0,0.0,0.0,7.439848184585571
1761038868.454935,10.0,6.0,-1001.0,0,0,0,0.0,0.0,7.439848184585571
1761038868.5552943,-30.0,7.0,-995.0,0,0,0,0.0,0.0,7.439848184585571
1761038868.6560261,-16.0,-3.0,-1014.0,0,0,0,0.0,0.0,7.439848184585571
1761038868.756999,0.0,2.0,-988.0,0,0,0,0.0,0.0,7.439848184585571
1761038868.8579185,-18.0,28.0,-1017.0,0,0,0,0.0,0.0,7.439848184585571
1761038868.9583874,-22.0,-2.0,-995.0,0,0,0,0.0,0.0,7.439848184585571
1761038869.0589216,-36.0,34.0,-1012.0,0,0,0,0.0,0.0,7.439848184585571
1761038869.1591125,8.0,10.0,-1014.0,0,0,0,0.0,0.0,7.439848184585571
1761038869.259707,-12.0,0.0,-1007.0,0,0,0,0.0,0.0,7.439848184585571
1761038869.3604503,-25.0,-2.0,-987.0,0,0,0,0.0,0.0,7.439848184585571
1761038869.4611018,4.0,-14.0,-1032.0,0,0,0,0.0,0.0,7.439848184585571
1761038869.5615602,-17.0,5.0,-1028.0,0,0,0,0.0,0.0,7.439848184585571
1761038869.6622927,5.0,-3.0,-1003.0,0,0,0,0.0,0.0,7.439848184585571
1761038869.7630033,17.0,-30.0,-981.0,0,0,0,0.0,0.0,7.439848184585571
1761038869.8634827,-2.0,-1.0,-1021.0,0,0,0,0.0,0.0,7.439848184585571
1761038869.9641776,-6.0,24.0,-1012.0,0,0,0,0.0,0.0,7.439848184585571
1761038870.0644443,-21.0,18.0,-1020.0,0,0,0,0.0,0.0,7.439848184585571
1761038870.1648474,-23.0,31.0,-999.0,0,0,0,0.0,0.0,7.439848184585571
1761038870.2654965,-13.0,12.0,-1009.0,0,0,0,0.0,0.0,7.439848184585571
1761038870.365812,9.0,-8.0,-999.0,0,0,0,0.0,0.0,7.439848184585571
1761038870.466266,29.0,4.0,-1006.0,0,0,0,0.0,0.0,7.439848184585571
1761038870.56716,8.0,9.0,-983.0,0,0,0,0.0,0.0,7.439848184585571
1761038870.6675394,-23.0,16.0,-974.0,0,0,0,0.0,0.0,7.439848184585571
1761038870.7677133,-9.0,9.0,-1000.0,0,0,0,0.0,0.0,7.439848184585571
1761038870.8686473,-36.0,10.0,-989.0,0,0,0,0.0,0.0,7.439848184585571
1761038870.9690614,-23.0,7.0,-978.0,0,0,0,0.0,0.0,7.439848184585571
1761038871.0697136,36.0,4.0,-1011.0,0,0,0,0.0,0.0,7.439848184585571
1761038871.170122,19.0,-14.0,-1008.0,0,0,0,0.0,0.0,7.439848184585571
1761038871.2708044,-19.0,-8.0,-989.0,0,0,0,0.0,0.0,7.439848184585571
1761038871.3709679,-37.0,32.0,-993.0,0,0,0,0.0,0.0,7.439848184585571
1761038871.4713833,15.0,1.0,-983.0,0,0,0,0.0,0.0,7.439848184585571
1761038871.5721745,-1.0,1.0,-995.0,0,0,0,0.0,0.0,7.439848184585571
1761038871.672815,-37.0,16.0,-990.0,0,0,0,0.0,0.0,7.439848184585571
1761038871.7731502,-39.0,18.0,-973.0,0,0,0,0.0,0.0,7.439848184585571
1761038871.8736708,-50.0,22.0,-964.0,0,0,0,0.0,0.0,7.439848184585571
1761038871.9740844,9.0,28.0,-1006.0,0,0,0,0.0,0.0,7.439848184585571
1761038872.074732,2.0,-13.0,-971.0,0,0,0,0.0,0.0,7.439848184585571
1761038872.1758933,-4.0,9.0,-1004.0,0,0,0,0.0,0.0,7.439848184585571
1761038872.2764974,27.0,19.0,-1001.0,0,0,0,0.0,0.0,7.439848184585571
1761038872.3769133,36.0,-6.0,-995.0,0,0,0,0.0,0.0,7.439848184585571
1761038872.4773889,1.0,12.0,-1010.0,0,0,0,0.0,0.0,7.439848184585571
1761038872.5781753,-11.0,25.0,-1010.0,0,0,0,0.0,0.0,7.439848184585571
1761038872.6788032,-25.0,-16.0,-983.0,0,0,0,0.0,0.0,7.439848184585571
1761038872.7794654,-33.0,34.0,-1000.0,0,0,0,0.0,0.0,7.439848184585571
1761038872.880029,-18.0,0.0,-974.0,0,0,0,0.0,0.0,7.439848184585571
1761038872.9803483,-3.0,-4.0,-1034.0,0,0,0,0.0,0.0,7.439848184585571
1761038873.0807633,-2.0,3.0,-1007.0,0,0,0,0.0,0.0,7.439848184585571
1761038873.181139,0.0,0.0,-982.0,0,0,0,0.0,0.0,7.439848184585571
1761038873.2814016,-25.0,23.0,-996.0,0,0,0,0.0,0.0,7.439848184585571
1761038873.3816085,31.0,20.0,-1031.0,0,0,0,0.0,0.0,7.439848184585571
1761038873.4823465,-7.0,9.0,-987.0,0,0,0,0.0,0.0,7.439848184585571
1761038873.5827243,2.0,7.0,-1000.0,0,0,0,0.0,0.0,7.439848184585571
1761038873.6830893,20.0,4.0,-1016.0,0,0,0,0.0,0.0,7.439848184585571
1761038873.7835352,-15.0,9.0,-993.0,0,0,0,0.0,0.0,7.439848184585571
1761038873.8843558,-7.0,6.0,-988.0,0,0,0,0.0,0.0,7.439848184585571
1761038873.9848466,10.0,-9.0,-1001.0,0,0,0,0.0,0.0,7.439848184585571
1761038874.0858533,17.0,3.0,-977.0,0,0,0,0.0,0.0,7.439848184585571
1761038874.1862211,-12.0,15.0,-987.0,0,0,0,0.0,0.0,7.439848184585571
1761038874.2865853,0.0,19.0,-1008.0,0,0,0,0.0,0.0,7.439848184585571
1761038874.38727,-2.0,3.0,-1019.0,0,0,0,0.0,0.0,7.439848184585571
1761038874.487908,-4.0,17.0,-1003.0,0,0,0,0.0,0.0,7.439848184585571
1761038874.5884666,25.0,-7.0,-984.0,0,0,0,0.0,0.0,7.439848184585571
1761038874.6890905,0.0,18.0,-1033.0,0,0,0,0.0,0.0,7.439848184585571
1761038874.7897146,17.0,-20.0,-1015.0,0,0,0,0.0,0.0,7.439848184585571
1761038874.8900707,20.0,0.0,-1023.0,0,0,0,0.0,0.0,7.439848184585571
1761038874.9906802,6.0,0.0,-990.0,0,0,0,0.0,0.0,7.439848184585571
1761038875.0908995,-29.0,11.0,-1011.0,0,0,0,0.0,0.0,7.439848184585571
1761038875.1917915,-30.0,13.0,-1004.0,0,0,0,0.0,0.0,7.439848184585571
1761038875.2923033,-17.0,24.0,-1030.0,0,0,0,0.0,0.0,7.439848184585571
1761038875.3927808,-25.0,26.0,-1023.0,0,0,0,0.0,0.0,7.439848184585571
1761038875.4935663,6.0,-6.0,-1035.0,0,0,0,0.0,0.0,7.439848184585571
1761038875.5943549,-24.0,15.0,-983.0,0,0,0,0.0,0.0,7.439848184585571
1761038875.6950576,0.0,2.0,-1001.0,0,0,0,0.0,0.0,7.439848184585571
1761038875.7955153,-6.0,12.0,-976.0,0,0,0,0.0,0.0,7.439848184585571
1761038875.8958726,-8.0,7.0,-981.0,0,0,0,0.0,0.0,7.439848184585571
1761038875.9961371,-2.0,0.0,-981.0,0,0,0,0.0,0.0,7.439848184585571
1761038876.0965369,3.0,-7.0,-975.0,0,0,0,0.0,0.0,7.439848184585571
1761038876.197179,-44.0,-24.0,-945.0,0,0,0,0.0,0.0,7.439848184585571
1761038876.2979672,-23.0,11.0,-1007.0,0,0,0,0.0,0.0,7.439848184585571
1761038876.3986857,-9.0,8.0,-979.0,0,0,0,0.0,0.0,7.439848184585571
1761038876.4993956,-29.0,7.0,-1007.0,0,0,0,0.0,0.0,7.439848184585571
1761038876.6004276,-38.0,37.0,-979.0,0,0,0,0.0,0.0,7.439848184585571
1761038876.7007318,-38.0,37.0,-979.0,0,0,0,0.0,0.0,7.439848184585571
1761038876.8011413,-26.0,-4.0,-960.0,0,0,0,0.0,0.0,7.439848184585571
1761038876.9017313,0.0,-5.0,-1030.0,0,0,0,0.0,0.0,7.439848184585571
1761038877.0025427,-31.0,26.0,-1014.0,0,0,0,0.0,0.0,7.439848184585571
1761038877.1030324,25.0,-11.0,-992.0,0,0,0,0.0,0.0,7.439848184585571
1761038877.2033222,-24.0,26.0,-1030.0,0,0,0,0.0,0.0,7.439848184585571
1761038877.3037534,-11.0,15.0,-975.0,0,0,0,0.0,0.0,7.439848184585571
1761038877.4042497,-40.0,-13.0,-988.0,0,0,0,0.0,0.0,7.439848184585571
1761038877.5049546,-32.0,-21.0,-999.0,0,0,0,0.0,0.0,7.439848184585571
1761038877.6051586,-23.0,16.0,-1024.0,0,0,0,0.0,0.0,7.439848184585571
1761038877.705492,5.0,-25.0,-978.0,0,0,0,0.0,0.0,7.439848184585571
1761038877.806038,-23.0,6.0,-983.0,0,0,0,0.0,0.0,7.439848184585571
1761038877.9065802,-20.0,19.0,-1004.0,0,0,0,0.0,0.0,7.439848184585571
1761038878.0072584,1.0,-1.0,-1014.0,0,0,0,0.0,0.0,7.439848184585571
1761038878.107827,-16.0,8.0,-987.0,0,1,0,0.0,0.10056853294372559,7.439848184585571
1761038878.2084224,-34.0,14.0,-966.0,0,1,0,0.0,0.20116400718688965,7.439848184585571
1761038878.3091116,3.0,-9.0,-986.0,0,1,0,0.0,0.3018531799316406,7.439848184585571
1761038878.4095042,17.0,10.0,-1014.0,0,1,0,0.0,0.40224575996398926,7.439848184585571
1761038878.5101686,10.0,-2.0,-990.0,0,1,0,0.0,0.5029101371765137,7.439848184585571
1761038878.6110194,-2.0,-1.0,-989.0,0,1,0,0.0,0.6037609577178955,7.439848184585571
1761038878.7113206,6.0,-22.0,-956.0,0,1,0,0.0,0.7040622234344482,7.439848184585571
1761038878.811937,-29.0,10.0,-986.0,0,1,0,0.0,0.8046786785125732,7.439848184585571
1761038878.9123383,23.0,-7.0,-995.0,0,1,0,0.0,0.9050798416137695,7.439848184585571
1761038879.0129707,39.0,-2.0,-1025.0,0,1,0,0.0,1.0057122707366943,7.439848184585571
1761038879.1135309,-9.0,2.0,-998.0,0,1,0,0.0,1.1062724590301514,7.439848184585571
1761038879.214369,27.0,-14.0,-1049.0,0,1,0,0.0,1.2071106433868408,7.439848184585571
1761038879.314723,-16.0,10.0,-982.0,0,1,0,0.0,1.307464599609375,7.439848184585571
1761038879.4156976,-20.0,-8.0,-983.0,0,1,0,0.0,1.4084391593933105,7.439848184585571
1761038879.516182,-49.0,6.0,-999.0,0,1,0,0.0,1.5089235305786133,7.439848184585571
1761038879.616603,-1.0,0.0,-1003.0,0,1,0,0.0,1.609344482421875,7.439848184585571
1761038879.7170873,14.0,10.0,-1020.0,0,1,0,0.0,1.7098288536071777,7.439848184585571
1761038879.81771,-1.0,-4.0,-1013.0,0,1,0,0.0,1.8104515075683594,7.439848184585571
1761038879.9184284,-6.0,8.0,-1012.0,0,1,0,0.0,1.9111700057983398,7.439848184585571
1761038880.0190718,-8.0,2.0,-1027.0,0,1,0,0.0,2.0118134021759033,7.439848184585571
1761038880.1193185,-26.0,-8.0,-1011.0,0,1,0,0.0,2.112060070037842,7.439848184585571
1761038880.2196846,-55.0,2.0,-978.0,0,0,0,0.0,2.112060070037842,7.439848184585571
1761038880.3201199,-55.0,2.0,-978.0,0,0,0,0.0,2.112060070037842,7.439848184585571
1761038880.4204211,3.0,8.0,-1022.0,0,0,0,0.0,2.112060070037842,7.439848184585571
1761038880.5210965,-4.0,15.0,-994.0,0,0,0,0.0,2.112060070037842,7.439848184585571
1761038880.6215906,-8.0,-13.0,-976.0,0,1,0,0.0,2.2125542163848877,7.439848184585571
1761038880.7217696,-35.0,7.0,-975.0,0,1,0,0.0,2.3127331733703613,7.439848184585571
1761038880.8221726,-7.0,9.0,-1000.0,0,1,0,0.0,2.4131362438201904,7.439848184585571
1761038880.9228592,-10.0,-14.0,-963.0,0,1,0,0.0,2.5138227939605713,7.439848184585571
1761038881.0236044,-49.0,-9.0,-1007.0,0,1,0,0.0,2.614567995071411,7.439848184585571
1761038881.1242595,-34.0,9.0,-1010.0,0,1,0,0.0,2.7152230739593506,7.439848184585571
1761038881.2245145,-19.0,-2.0,-999.0,-1,1,0,-0.10025501251220703,2.8154780864715576,7.439848184585571
1761038881.3249419,-27.0,0.0,-1005.0,-1,1,0,-0.2006824016571045,2.915905475616455,7.439848184585571
1761038881.425168,-36.0,5.0,-1014.0,-1,1,0,-0.30090856552124023,3.016131639480591,7.439848184585571
1761038881.5255182,-16.0,-11.0,-1002.0,-1,1,0,-0.4012587070465088,3.1164817810058594,7.439848184585571
1761038881.62609,-34.0,7.0,-992.0,-1,0,0,-0.5018305778503418,3.1164817810058594,7.439848184585571
1761038881.7267933,-4.0,-7.0,-1003.0,-1,0,0,-0.6025338172912598,3.1164817810058594,7.439848184585571
1761038881.8272984,11.0,-38.0,-988.0,-1,0,0,-0.7030389308929443,3.1164817810058594,7.439848184585571
1761038881.927708,-9.0,-16.0,-1009.0,-1,0,0,-0.8034484386444092,3.1164817810058594,7.439848184585571
1761038882.0282056,-24.0,6.0,-979.0,-1,0,0,-0.9039461612701416,3.1164817810058594,7.439848184585571
1761038882.128683,-4.0,-11.0,-979.0,-1,0,0,-1.0044236183166504,3.1164817810058594,7.439848184585571
1761038882.2294538,-24.0,-13.0,-992.0,-1,0,0,-1.105194330215454,3.1164817810058594,7.439848184585571
1761038882.3298216,-14.0,-6.0,-1014.0,-1,0,0,-1.2055621147155762,3.1164817810058594,7.439848184585571
1761038882.4301274,0.0,0.0,-1013.0,-1,0,0,-1.3058679103851318,3.1164817810058594,7.439848184585571
1761038882.5304325,6.0,-10.0,-992.0,-1,0,0,-1.4061729907989502,3.1164817810058594,7.439848184585571
1761038882.6312523,-9.0,-7.0,-977.0,-1,0,0,-1.5069928169250488,3.1164817810058594,7.439848184585571
1761038882.7315154,-25.0,-14.0,-996.0,-1,0,0,-1.6072559356689453,3.1164817810058594,7.439848184585571
1761038882.832196,-11.0,-1.0,-1020.0,-1,0,0,-1.7079365253448486,3.1164817810058594,7.439848184585571
1761038882.9325879,-7.0,14.0,-976.0,-1,0,0,-1.80832839012146,3.1164817810058594,7.439848184585571
1761038883.0333674,-20.0,-17.0,-997.0,-1,0,0,-1.9091079235076904,3.1164817810058594,7.439848184585571
1761038883.1336234,3.0,0.0,-998.0,-1,0,0,-2.009363889694214,3.1164817810058594,7.439848184585571
1761038883.2340593,-15.0,-17.0,-975.0,-1,0,0,-2.109799861907959,3.1164817810058594,7.439848184585571
1761038883.3343892,-17.0,-9.0,-988.0,-1,0,0,-2.210129737854004,3.1164817810058594,7.439848184585571
1761038883.4351108,19.0,-9.0,-1038.0,-1,0,0,-2.3108513355255127,3.1164817810058594,7.439848184585571
1761038883.5361433,7.0,-15.0,-1030.0,-1,0,0,-2.41188383102417,3.1164817810058594,7.439848184585571
1761038883.6363242,7.0,-15.0,-1030.0,-1,0,0,-2.5120646953582764,3.1164817810058594,7.439848184585571
1761038883.737145,29.0,-6.0,-1029.0,-1,0,0,-2.6128854751586914,3.1164817810058594,7.439848184585571
1761038883.8376267,26.0,12.0,-1039.0,-1,0,0,-2.713367223739624,3.1164817810058594,7.439848184585571
1761038883.9379318,16.0,-12.0,-1007.0,-1,0,0,-2.8136723041534424,3.1164817810058594,7.439848184585571
1761038884.038384,12.0,-14.0,-1005.0,-1,0,0,-2.9141244888305664,3.1164817810058594,7.439848184585571
1761038884.139051,10.0,-1.0,-1000.0,-1,0,0,-3.014791488647461,3.1164817810058594,7.439848184585571
1761038884.239477,29.0,15.0,-1003.0,-1,0,0,-3.115217447280884,3.1164817810058594,7.439848184585571
1761038884.340574,20.0,-10.0,-993.0,-1,0,0,-3.2163145542144775,3.1164817810058594,7.439848184585571
1761038884.441181,5.0,18.0,-1010.0,-1,0,0,-3.3169214725494385,3.1164817810058594,7.439848184585571
1761038884.5418468,6.0,11.0,-991.0,-1,0,0,-3.4175872802734375,3.1164817810058594,7.439848184585571
1761038884.6424153,1.0,4.0,-1003.0,-1,0,0,-3.518155813217163,3.1164817810058594,7.439848184585571
1761038884.7428098,10.0,2.0,-1010.0,-1,0,0,-3.6185503005981445,3.1164817810058594,7.439848184585571
1761038884.8433602,-14.0,-3.0,-1006.0,-1,0,0,-3.7191007137298584,3.1164817810058594,7.439848184585571
1761038884.943984,-5.0,-3.0,-1003.0,-1,0,0,-3.8197245597839355,3.1164817810058594,7.439848184585571
1761038885.0445874,-13.0,3.0,-990.0,-1,0,0,-3.92032790184021,3.1164817810058594,7.439848184585571
1761038885.1450126,20.0,15.0,-1010.0,0,0,0,-3.92032790184021,3.1164817810058594,7.439848184585571
1761038885.2456846,11.0,-1.0,-1012.0,0,-1,0,-3.92032790184021,3.0158097743988037,7.439848184585571
1761038885.3462932,-1.0,-5.0,-1011.0,0,-1,0,-3.92032790184021,2.915201187133789,7.439848184585571
1761038885.4468622,1.0,-8.0,-987.0,0,-1,0,-3.92032790184021,2.8146321773529053,7.439848184585571
1761038885.5474296,0.0,-2.0,-983.0,0,-1,0,-3.92032790184021,2.714064836502075,7.439848184585571
1761038885.6481075,23.0,-11.0,-991.0,0,-1,0,-3.92032790184021,2.613386869430542,7.439848184585571
1761038885.7488174,-4.0,-4.0,-1024.0,0,-1,0,-3.92032790184021,2.512676954269409,7.439848184585571
1761038885.8497725,-9.0,-18.0,-970.0,0,0,0,-3.92032790184021,2.512676954269409,7.439848184585571
1761038885.9503424,-9.0,6.0,-1011.0,0,0,0,-3.92032790184021,2.512676954269409,7.439848184585571
1761038886.0508819,5.0,13.0,-1026.0,0,0,0,-3.92032790184021,2.512676954269409,7.439848184585571
1761038886.1511984,22.0,-9.0,-1021.0,0,0,0,-3.92032790184021,2.512676954269409,7.439848184585571
1761038886.2520037,8.0,-9.0,-988.0,0,0,0,-3.92032790184021,2.512676954269409,7.439848184585571
1761038886.3522694,-1.0,0.0,-993.0,0,-1,0,-3.92032790184021,2.4124112129211426,7.439848184585571
1761038886.4527338,0.0,-10.0,-970.0,0,-1,0,-3.92032790184021,2.3119468688964844,7.439848184585571
1761038886.5533464,-21.0,12.0,-990.0,0,-1,0,-3.92032790184021,2.211334228515625,7.439848184585571
1761038886.653845,0.0,-5.0,-976.0,0,-1,0,-3.92032790184021,2.110835552215576,7.439848184585571
1761038886.7543278,9.0,-10.0,-991.0,0,-1,0,-3.92032790184021,2.010352849960327,7.439848184585571
1761038886.8548048,-4.0,-9.0,-987.0,0,-1,0,-3.92032790184021,1.9098758697509766,7.439848184585571
1761038886.9555442,10.0,-12.0,-1040.0,0,-1,0,-3.92032790184021,1.8091363906860352,7.439848184585571
1761038887.0562525,-13.0,-5.0,-1000.0,0,-1,0,-3.92032790184021,1.708428144454956,7.439848184585571
1761038887.156878,6.0,-16.0,-990.0,0,-1,0,-3.92032790184021,1.6078026294708252,7.439848184585571
1761038887.25764,-15.0,3.0,-1026.0,0,-1,0,-3.92032790184021,1.5070407390594482,7.439848184585571
1761038887.357974,-15.0,3.0,-1026.0,0,-1,0,-3.92032790184021,1.4067065715789795,7.439848184585571
1761038887.4582818,-15.0,-18.0,-970.0,0,-1,0,-3.92032790184021,1.306398868560791,7.439848184585571
1761038887.5588293,1.0,0.0,-1002.0,0,-1,0,-3.92032790184021,1.2058513164520264,7.439848184585571
1761038887.6591158,-9.0,11.0,-1013.0,0,-1,0,-3.92032790184021,1.105564832687378,7.439848184585571
1761038887.7596178,-3.0,2.0,-1012.0,0,-1,0,-3.92032790184021,1.0050628185272217,7.439848184585571
1761038887.8604538,1.0,18.0,-1009.0,0,-1,0,-3.92032790184021,0.9042267799377441,7.439848184585571
1761038887.9615881,-15.0,3.0,-1015.0,0,0,0,-3.92032790184021,0.9042267799377441,7.439848184585571
1761038888.0621698,-8.0,16.0,-994.0,0,0,0,-3.92032790184021,0.9042267799377441,7.439848184585571
1761038888.162691,-17.0,1.0,-990.0,0,0,0,-3.92032790184021,0.9042267799377441,7.439848184585571
1761038888.2630527,7.0,-15.0,-962.0,0,-1,0,-3.92032790184021,0.8038651943206787,7.439848184585571
1761038888.3634155,11.0,18.0,-1001.0,0,-1,0,-3.92032790184021,0.7035024166107178,7.439848184585571
1761038888.4639776,-1.0,-4.0,-998.0,0,-1,0,-3.92032790184021,0.6029403209686279,7.439848184585571
1761038888.564769,-19.0,-5.0,-1009.0,0,-1,0,-3.92032790184021,0.5021488666534424,7.439848184585571
1761038888.6654289,-7.0,-6.0,-996.0,0,-1,0,-3.92032790184021,0.4014890193939209,7.439848184585571
1761038888.7661471,8.0,-9.0,-1002.0,0,-1,0,-3.92032790184021,0.30077075958251953,7.439848184585571
1761038888.8665273,5.0,15.0,-1016.0,0,-1,0,-3.92032790184021,0.20039057731628418,7.439848184585571
1761038888.966802,-10.0,7.0,-999.0,0,0,0,-3.92032790184021,0.20039057731628418,7.439848184585571
1761038889.067355,-15.0,13.0,-1015.0,0,0,0,-3.92032790184021,0.20039057731628418,7.439848184585571
1761038889.1680307,-3.0,6.0,-1013.0,0,0,0,-3.92032790184021,0.20039057731628418,7.439848184585571
1761038889.2686203,-9.0,3.0,-1005.0,0,0,0,-3.92032790184021,0.20039057731628418,7.439848184585571
1761038889.3690565,16.0,-13.0,-1010.0,0,0,0,-3.92032790184021,0.20039057731628418,7.439848184585571
1761038889.46935,10.0,6.0,-1013.0,0,0,0,-3.92032790184021,0.20039057731628418,7.439848184585571
1761038889.569953,19.0,13.0,-1009.0,0,0,0,-3.92032790184021,0.20039057731628418,7.439848184585571
1761038889.6702428,9.0,-3.0,-1002.0,0,0,0,-3.92032790184021,0.20039057731628418,7.439848184585571
1761038889.7705042,-4.0,16.0,-1032.0,0,0,0,-3.92032790184021,0.20039057731628418,7.439848184585571
1761038889.8712268,-29.0,32.0,-976.0,0,0,0,-3.92032790184021,0.20039057731628418,7.439848184585571
1761038889.9722128,31.0,23.0,-1007.0,0,0,0,-3.92032790184021,0.20039057731628418,7.439848184585571
1761038890.072758,-16.0,11.0,-955.0,0,0,0,-3.92032790184021,0.20039057731628418,7.439848184585571
1761038890.1730785,7.0,22.0,-970.0,0,0,0,-3.92032790184021,0.20039057731628418,7.439848184585571
1761038890.273671,19.0,27.0,-1009.0,0,0,0,-3.92032790184021,0.20039057731628418,7.439848184585571
1761038890.3743744,-3.0,17.0,-950.0,0,0,0,-3.92032790184021,0.20039057731628418,7.439848184585571
1761038890.4750843,25.0,28.0,-1010.0,0,0,0,-3.92032790184021,0.20039057731628418,7.439848184585571
1761038890.5759606,-6.0,-6.0,-972.0,0,0,0,-3.92032790184021,0.20039057731628418,7.439848184585571
1761038890.6765275,-33.0,23.0,-1022.0,0,0,0,-3.92032790184021,0.20039057731628418,7.439848184585571
1761038890.776775,-12.0,29.0,-1012.0,0,0,0,-3.92032790184021,0.20039057731628418,7.439848184585571
1761038890.8771148,-12.0,29.0,-1012.0,0,0,0,-3.92032790184021,0.20039057731628418,7.439848184585571
1761038890.9779093,8.0,-8.0,-990.0,0,0,0,-3.92032790184021,0.20039057731628418,7.439848184585571
1761038891.0783572,8.0,18.0,-994.0,0,0,0,-3.92032790184021,0.20039057731628418,7.439848184585571
1761038891.1785996,-2.0,24.0,-1018.0,0,0,0,-3.92032790184021,0.20039057731628418,7.439848184585571
1761038891.2793236,23.0,18.0,-1002.0,0,0,0,-3.92032790184021,0.20039057731628418,7.439848184585571
1761038891.379643,-17.0,29.0,-984.0,0,0,0,-3.92032790184021,0.20039057731628418,7.439848184585571
1761038891.4800773,-1.0,8.0,-1012.0,0,0,0,-3.92032790184021,0.20039057731628418,7.439848184585571
1761038891.5806928,-19.0,28.0,-971.0,0,0,0,-3.92032790184021,0.20039057731628418,7.439848184585571
1761038891.6811771,1.0,21.0,-1026.0,0,0,0,-3.92032790184021,0.20039057731628418,7.439848184585571
1761038891.7817485,-1.0,26.0,-1007.0,0,0,0,-3.92032790184021,0.20039057731628418,7.439848184585571
1761038891.8822024,-3.0,8.0,-997.0,0,0,0,-3.92032790184021,0.20039057731628418,7.439848184585571
1761038891.98256,-23.0,13.0,-1014.0,0,0,0,-3.92032790184021,0.20039057731628418,7.439848184585571
1761038892.0830476,-24.0,11.0,-979.0,0,0,0,-3.92032790184021,0.20039057731628418,7.439848184585571
1761038892.183801,-45.0,12.0,-985.0,0,0,0,-3.92032790184021,0.20039057731628418,7.439848184585571
1761038892.284364,-41.0,10.0,-1017.0,0,0,0,-3.92032790184021,0.20039057731628418,7.439848184585571
1761038892.3846037,-33.0,24.0,-982.0,0,0,0,-3.92032790184021,0.20039057731628418,7.439848184585571
1761038892.4851542,-29.0,0.0,-1028.0,0,0,0,-3.92032790184021,0.20039057731628418,7.439848184585571
1761038892.5855558,-16.0,1.0,-1002.0,1,0,0,-3.8199262619018555,0.20039057731628418,7.439848184585571
1761038892.6863616,-26.0,-12.0,-978.0,0,0,0,-3.8199262619018555,0.20039057731628418,7.439848184585571
1761038892.7866192,-25.0,-3.0,-1033.0,0,0,0,-3.8199262619018555,0.20039057731628418,7.439848184585571
1761038892.8873217,-33.0,1.0,-960.0,0,0,0,-3.8199262619018555,0.20039057731628418,7.439848184585571
1761038892.9878683,-15.0,-33.0,-990.0,0,0,0,-3.8199262619018555,0.20039057731628418,7.439848184585571
1761038893.088665,-10.0,-30.0,-957.0,0,0,0,-3.8199262619018555,0.20039057731628418,7.439848184585571
1761038893.189129,-3.0,-11.0,-1045.0,0,0,0,-3.8199262619018555,0.20039057731628418,7.439848184585571
1761038893.2896588,-17.0,20.0,-1007.0,0,0,0,-3.8199262619018555,0.20039057731628418,7.439848184585571
1761038893.3903484,-33.0,3.0,-990.0,0,0,0,-3.8199262619018555,0.20039057731628418,7.439848184585571
1761038893.4907966,-19.0,-3.0,-1031.0,0,0,0,-3.8199262619018555,0.20039057731628418,7.439848184585571
1761038893.5914004,-26.0,-11.0,-973.0,0,0,0,-3.8199262619018555,0.20039057731628418,7.439848184585571
1761038893.6916544,3.0,-24.0,-951.0,0,0,0,-3.8199262619018555,0.20039057731628418,7.439848184585571
1761038893.7920613,-15.0,0.0,-987.0,0,0,0,-3.8199262619018555,0.20039057731628418,7.439848184585571
1761038893.8923504,18.0,-7.0,-976.0,0,0,0,-3.8199262619018555,0.20039057731628418,7.439848184585571
1761038893.9930596,16.0,13.0,-974.0,0,0,0,-3.8199262619018555,0.20039057731628418,7.439848184585571
1761038894.0932639,-3.0,4.0,-985.0,0,0,0,-3.8199262619018555,0.20039057731628418,7.439848184585571
1761038894.1940846,-4.0,-18.0,-1007.0,0,0,0,-3.8199262619018555,0.20039057731628418,7.439848184585571
1761038894.2948787,-35.0,-10.0,-999.0,0,0,0,-3.8199262619018555,0.20039057731628418,7.439848184585571
1761038894.3956895,-35.0,-10.0,-999.0,0,0,0,-3.8199262619018555,0.20039057731628418,7.439848184585571
1761038894.4961233,-10.0,5.0,-993.0,0,0,0,-3.8199262619018555,0.20039057731628418,7.439848184585571
1761038894.596379,-13.0,-26.0,-1015.0,0,0,0,-3.8199262619018555,0.20039057731628418,7.439848184585571
1761038894.6968238,-19.0,14.0,-1035.0,0,0,0,-3.8199262619018555,0.20039057731628418,7.439848184585571
1761038894.7973716,-20.0,-13.0,-997.0,0,0,0,-3.8199262619018555,0.20039057731628418,7.439848184585571
1761038894.898287,10.0,-11.0,-1024.0,0,0,0,-3.8199262619018555,0.20039057731628418,7.439848184585571
1761038894.998612,10.0,-1.0,-1034.0,0,0,0,-3.8199262619018555,0.20039057731628418,7.439848184585571
1761038895.0992165,-16.0,-17.0,-1012.0,0,0,0,-3.8199262619018555,0.20039057731628418,7.439848184585571
1761038895.1995187,-25.0,0.0,-1015.0,0,0,0,-3.8199262619018555,0.20039057731628418,7.439848184585571
1761038895.299756,5.0,4.0,-1027.0,0,0,0,-3.8199262619018555,0.20039057731628418,7.439848184585571
1761038895.400342,-33.0,13.0,-985.0,0,0,0,-3.8199262619018555,0.20039057731628418,7.439848184585571
1761038895.5009513,-6.0,-2.0,-999.0,0,0,0,-3.8199262619018555,0.20039057731628418,7.439848184585571
1761038895.6013122,28.0,-17.0,-1021.0,0,0,0,-3.8199262619018555,0.20039057731628418,7.439848184585571
1761038895.7018878,21.0,-4.0,-982.0,0,0,0,-3.8199262619018555,0.20039057731628418,7.439848184585571
1761038895.802513,-18.0,-4.0,-980.0,0,0,0,-3.8199262619018555,0.20039057731628418,7.439848184585571
1761038895.9033751,-11.0,-13.0,-996.0,0,0,0,-3.8199262619018555,0.20039057731628418,7.439848184585571
1761038896.0036492,22.0,-1.0,-1027.0,0,0,0,-3.8199262619018555,0.20039057731628418,7.439848184585571
1761038896.1043556,-2.0,5.0,-989.0,0,0,0,-3.8199262619018555,0.20039057731628418,7.439848184585571
1761038896.2046328,-37.0,-33.0,-977.0,0,0,0,-3.8199262619018555,0.20039057731628418,7.439848184585571
1761038896.3050892,-2.0,7.0,-999.0,0,0,0,-3.8199262619018555,0.20039057731628418,7.439848184585571
1761038896.4053733,-13.0,-12.0,-977.0,0,0,0,-3.8199262619018555,0.20039057731628418,7.439848184585571
1761038896.505975,0.0,-21.0,-1002.0,0,0,0,-3.8199262619018555,0.20039057731628418,7.439848184585571
1761038896.6066303,-27.0,9.0,-1004.0,0,0,0,-3.8199262619018555,0.20039057731628418,7.439848184585571
1761038896.706944,-4.0,-12.0,-997.0,0,0,0,-3.8199262619018555,0.20039057731628418,7.439848184585571
1761038896.8075898,10.0,-2.0,-1023.0,0,0,0,-3.8199262619018555,0.20039057731628418,7.439848184585571
1761038896.908329,9.0,0.0,-1020.0,0,0,0,-3.8199262619018555,0.20039057731628418,7.439848184585571
1761038897.008579,-35.0,12.0,-1002.0,0,0,0,-3.8199262619018555,0.20039057731628418,7.439848184585571
1761038897.1089776,-10.0,-20.0,-988.0,0,0,0,-3.8199262619018555,0.20039057731628418,7.439848184585571
1761038897.2096941,-16.0,-7.0,-1001.0,0,0,0,-3.8199262619018555,0.20039057731628418,7.439848184585571
1761038897.3103194,0.0,-6.0,-1024.0,0,0,0,-3.8199262619018555,0.20039057731628418,7.439848184585571
1761038897.4108684,-8.0,-10.0,-1005.0,0,0,0,-3.8199262619018555,0.20039057731628418,7.439848184585571
1761038897.5113668,-11.0,-14.0,-1007.0,0,0,0,-3.8199262619018555,0.20039057731628418,7.439848184585571
1761038897.6115,-58.0,2.0,-967.0,0,0,0,-3.8199262619018555,0.20039057731628418,7.439848184585571
1761038897.712089,-21.0,-5.0,-982.0,0,0,0,-3.8199262619018555,0.20039057731628418,7.439848184585571
1761038897.8125374,-21.0,-5.0,-982.0,0,0,0,-3.8199262619018555,0.20039057731628418,7.439848184585571
1761038897.9133284,-18.0,2.0,-992.0,0,0,0,-3.8199262619018555,0.20039057731628418,7.439848184585571
1761038898.013655,-10.0,-4.0,-1002.0,0,0,0,-3.8199262619018555,0.20039057731628418,7.439848184585571
1761038898.1141026,-11.0,-12.0,-1002.0,0,0,0,-3.8199262619018555,0.20039057731628418,7.439848184585571
1761038898.214741,-6.0,-1.0,-1006.0,0,0,0,-3.8199262619018555,0.20039057731628418,7.439848184585571
1761038898.31493,-4.0,-34.0,-994.0,0,0,0,-3.8199262619018555,0.20039057731628418,7.439848184585571
1761038898.415286,-7.0,-3.0,-1033.0,0,0,0,-3.8199262619018555,0.20039057731628418,7.439848184585571
1761038898.5157452,11.0,-13.0,-1038.0,0,0,0,-3.8199262619018555,0.20039057731628418,7.439848184585571
1761038898.6167178,-2.0,-12.0,-999.0,0,0,0,-3.8199262619018555,0.20039057731628418,7.439848184585571
1761038898.7171943,-15.0,-9.0,-1019.0,0,0,0,-3.8199262619018555,0.20039057731628418,7.439848184585571
1761038898.817547,16.0,-20.0,-1032.0,0,0,0,-3.8199262619018555,0.20039057731628418,7.439848184585571
1761038898.9180958,8.0,-13.0,-1022.0,0,0,0,-3.8199262619018555,0.20039057731628418,7.439848184585571
1761038899.0186772,-14.0,-9.0,-968.0,0,0,0,-3.8199262619018555,0.20039057731628418,7.439848184585571
1761038899.1191354,-31.0,3.0,-967.0,0,0,0,-3.8199262619018555,0.20039057731628418,7.439848184585571
1761038899.2198365,-32.0,-13.0,-983.0,0,0,0,-3.8199262619018555,0.20039057731628418,7.439848184585571
1761038899.3202288,-12.0,-28.0,-989.0,0,0,0,-3.8199262619018555,0.20039057731628418,7.439848184585571
1761038899.4206493,-36.0,12.0,-995.0,0,0,0,-3.8199262619018555,0.20039057731628418,7.439848184585571
1761038899.5210242,-18.0,20.0,-1020.0,0,0,0,-3.8199262619018555,0.20039057731628418,7.439848184585571
1761038899.621298,5.0,-35.0,-966.0,0,0,0,-3.8199262619018555,0.20039057731628418,7.439848184585571
1761038899.7216377,-15.0,-17.0,-999.0,0,0,0,-3.8199262619018555,0.20039057731628418,7.439848184585571
1761038899.8222039,-28.0,-1.0,-981.0,0,0,0,-3.8199262619018555,0.20039057731628418,7.439848184585571
1761038899.922403,-6.0,5.0,-1041.0,0,0,0,-3.8199262619018555,0.20039057731628418,7.439848184585571
1761038900.0229743,-10.0,-14.0,-1006.0,0,0,0,-3.8199262619018555,0.20039057731628418,7.439848184585571
1761038900.1236155,-28.0,-17.0,-1016.0,0,0,0,-3.8199262619018555,0.20039057731628418,7.439848184585571
1761038900.2241218,-22.0,5.0,-998.0,0,0,0,-3.8199262619018555,0.20039057731628418,7.439848184585571
1761038900.324558,-27.0,7.0,-1020.0,0,0,0,-3.8199262619018555,0.20039057731628418,7.439848184585571
1761038900.4249282,-18.0,-33.0,-1014.0,0,0,0,-3.8199262619018555,0.20039057731628418,7.439848184585571
1761038900.5260277,-10.0,-14.0,-1007.0,0,0,0,-3.8199262619018555,0.20039057731628418,7.439848184585571
1761038900.6266372,-12.0,-4.0,-990.0,0,0,0,-3.8199262619018555,0.20039057731628418,7.439848184585571
1761038900.727038,-37.0,-16.0,-993.0,0,0,0,-3.8199262619018555,0.20039057731628418,7.439848184585571
1761038900.8274474,3.0,5.0,-1050.0,0,0,0,-3.8199262619018555,0.20039057731628418,7.439848184585571
1761038900.9279866,-3.0,-4.0,-1036.0,0,0,0,-3.8199262619018555,0.20039057731628418,7.439848184585571
1761038901.0286486,-25.0,5.0,-1028.0,0,0,0,-3.8199262619018555,0.20039057731628418,7.439848184585571
1761038901.129322,-26.0,-8.0,-984.0,0,0,0,-3.8199262619018555,0.20039057731628418,7.439848184585571
1761038901.229756,-26.0,-8.0,-984.0,0,0,0,-3.8199262619018555,0.20039057731628418,7.439848184585571
1761038901.3304718,-29.0,-22.0,-976.0,0,0,0,-3.8199262619018555,0.20039057731628418,7.439848184585571
1761038901.4312484,-20.0,-17.0,-1017.0,0,0,0,-3.8199262619018555,0.20039057731628418,7.439848184585571
1761038901.5317514,-23.0,-3.0,-1002.0,0,0,0,-3.8199262619018555,0.20039057731628418,7.439848184585571
1761038901.632162,-25.0,-12.0,-976.0,0,0,0,-3.8199262619018555,0.20039057731628418,7.439848184585571
1761038901.7326453,-7.0,-9.0,-1026.0,0,0,0,-3.8199262619018555,0.20039057731628418,7.439848184585571
1761038901.8333285,0.0,0.0,-1044.0,0,0,0,-3.8199262619018555,0.20039057731628418,7.439848184585571
1761038901.9337008,-14.0,21.0,-1030.0,0,0,0,-3.8199262619018555,0.20039057731628418,7.439848184585571
1761038902.0340662,-28.0,-15.0,-1037.0,0,0,0,-3.8199262619018555,0.20039057731628418,7.439848184585571
1761038902.134463,-6.0,-9.0,-972.0,0,0,0,-3.8199262619018555,0.20039057731628418,7.439848184585571
1761038902.2347345,-19.0,19.0,-951.0,0,0,0,-3.8199262619018555,0.20039057731628418,7.439848184585571
1761038902.3355627,-14.0,3.0,-1009.0,0,0,0,-3.8199262619018555,0.20039057731628418,7.439848184585571
1761038902.4358046,0.0,0.0,-954.0,0,0,0,-3.8199262619018555,0.20039057731628418,7.439848184585571
1761038902.5360904,-25.0,1.0,-960.0,0,0,0,-3.8199262619018555,0.20039057731628418,7.439848184585571
1761038902.636533,0.0,-2.0,-1013.0,0,0,0,-3.8199262619018555,0.20039057731628418,7.439848184585571
1761038902.737151,11.0,21.0,-1025.0,0,0,0,-3.8199262619018555,0.20039057731628418,7.439848184585571
1761038902.8374944,17.0,22.0,-941.0,0,0,0,-3.8199262619018555,0.20039057731628418,7.439848184585571
1761038902.9379494,0.0,18.0,-987.0,0,0,0,-3.8199262619018555,0.20039057731628418,7.439848184585571
1761038903.0383966,-1.0,16.0,-965.0,0,0,0,-3.8199262619018555,0.20039057731628418,7.439848184585571
1761038903.138662,3.0,18.0,-975.0,0,0,0,-3.8199262619018555,0.20039057731628418,7.439848184585571
1761038903.2389266,8.0,21.0,-955.0,0,0,0,-3.8199262619018555,0.20039057731628418,7.439848184585571
1761038903.339666,-6.0,23.0,-1035.0,0,0,0,-3.8199262619018555,0.20039057731628418,7.439848184585571
1761038903.4399388,5.0,0.0,-953.0,0,0,0,-3.8199262619018555,0.20039057731628418,7.439848184585571
1761038903.5401673,3.0,10.0,-995.0,0,0,0,-3.8199262619018555,0.20039057731628418,7.439848184585571
1761038903.640703,-18.0,3.0,-978.0,0,0,0,-3.8199262619018555,0.20039057731628418,7.439848184585571
1761038903.741649,2.0,30.0,-961.0,0,0,0,-3.8199262619018555,0.20039057731628418,7.439848184585571
1761038903.8424244,-18.0,6.0,-1002.0,0,0,0,-3.8199262619018555,0.20039057731628418,7.439848184585571
1761038903.9431796,-12.0,22.0,-1051.0,0,0,0,-3.8199262619018555,0.20039057731628418,7.439848184585571
1761038904.0433989,-4.0,6.0,-1042.0,0,0,0,-3.8199262619018555,0.20039057731628418,7.439848184585571
1761038904.1441088,-8.0,0.0,-1072.0,0,-1,0,-3.8199262619018555,0.09968066215515137,7.439848184585571
1761038904.244619,-17.0,-3.0,-1067.0,0,-1,1,-3.8199262619018555,-0.0008294582366943359,7.540358304977417
1761038904.3449016,0.0,34.0,-941.0,0,-1,0,-3.8199262619018555,-0.10111212730407715,7.540358304977417
1761038904.4451642,6.0,19.0,-922.0,0,-1,0,-3.8199262619018555,-0.20137476921081543,7.540358304977417
1761038904.5459914,-5.0,-24.0,-993.0,0,-1,0,-3.8199262619018555,-0.3022019863128662,7.540358304977417
1761038904.6465695,-5.0,-24.0,-993.0,0,-1,0,-3.8199262619018555,-0.40278005599975586,7.540358304977417
1761038904.747515,-16.0,-13.0,-996.0,0,-1,0,-3.8199262619018555,-0.503725528717041,7.540358304977417
1761038904.847961,-5.0,24.0,-963.0,0,-1,0,-3.8199262619018555,-0.6041715145111084,7.540358304977417
1761038904.948681,-16.0,21.0,-930.0,0,-1,0,-3.8199262619018555,-0.7048916816711426,7.540358304977417
1761038905.0490289,-13.0,13.0,-994.0,0,0,0,-3.8199262619018555,-0.7048916816711426,7.540358304977417
1761038905.1493955,-9.0,1.0,-1007.0,0,0,0,-3.8199262619018555,-0.7048916816711426,7.540358304977417
1761038905.2501264,-7.0,3.0,-954.0,0,0,-1,-3.8199262619018555,-0.7048916816711426,7.439627408981323
1761038905.3506055,-10.0,14.0,-1000.0,0,0,-1,-3.8199262619018555,-0.7048916816711426,7.339148283004761
1761038905.4509468,-28.0,26.0,-957.0,0,0,-1,-3.8199262619018555,-0.7048916816711426,7.238806962966919
1761038905.5516613,-26.0,-7.0,-1015.0,0,0,-1,-3.8199262619018555,-0.7048916816711426,7.138092517852783
1761038905.6522171,-16.0,20.0,-975.0,0,0,0,-3.8199262619018555,-0.7048916816711426,7.138092517852783
1761038905.7528684,10.0,23.0,-1033.0,0,0,0,-3.8199262619018555,-0.7048916816711426,7.138092517852783
1761038905.8531697,17.0,14.0,-1106.0,0,0,0,-3.8199262619018555,-0.7048916816711426,7.138092517852783
1761038905.9540505,-3.0,6.0,-1095.0,0,0,1,-3.8199262619018555,-0.7048916816711426,7.238973379135132
1761038906.0543132,-13.0,36.0,-995.0,0,0,1,-3.8199262619018555,-0.7048916816711426,7.33923602104187
1761038906.1550446,-13.0,29.0,-993.0,0,0,1,-3.8199262619018555,-0.7048916816711426,7.439967393875122
1761038906.2552304,11.0,20.0,-950.0,0,-1,1,-3.8199262619018555,-0.8050775527954102,7.54015326499939
1761038906.3555665,-14.0,-8.0,-933.0,0,0,1,-3.8199262619018555,-0.8050775527954102,7.640489339828491
1761038906.4560955,-36.0,27.0,-938.0,0,-1,0,-3.8199262619018555,-0.9056065082550049,7.640489339828491
1761038906.5567899,5.0,-16.0,-940.0,0,-1,0,-3.8199262619018555,-1.006300926208496,7.640489339828491
1761038906.6574526,-24.0,19.0,-956.0,0,0,0,-3.8199262619018555,-1.006300926208496,7.640489339828491
1761038906.7576835,-8.0,-10.0,-913.0,0,0,-1,-3.8199262619018555,-1.006300926208496,7.540258407592773
1761038906.85803,-15.0,10.0,-969.0,0,0,-1,-3.8199262619018555,-1.006300926208496,7.439911842346191
1761038906.9585032,-2.0,23.0,-977.0,0,0,-1,-3.8199262619018555,-1.006300926208496,7.3394386768341064
1761038907.0590067,0.0,17.0,-1119.0,0,0,-2,-3.8199262619018555,-1.006300926208496,7.138431787490845
1761038907.159565,-20.0,20.0,-1126.0,0,0,-1,-3.8199262619018555,-1.006300926208496,7.0378735065460205
1761038907.2601838,-5.0,-22.0,-1038.0,0,0,-1,-3.8199262619018555,-1.006300926208496,6.9372546672821045
1761038907.361087,-28.0,-6.0,-1055.0,0,0,0,-3.8199262619018555,-1.006300926208496,6.9372546672821045
1761038907.4614358,5.0,11.0,-1043.0,0,0,1,-3.8199262619018555,-1.006300926208496,7.037603378295898
1761038907.5623567,1.0,6.0,-1028.0,0,0,1,-3.8199262619018555,-1.006300926208496,7.138524293899536
1761038907.663167,0.0,10.0,-958.0,0,-1,1,-3.8199262619018555,-1.1071112155914307,7.239334583282471
1761038907.7637746,-11.0,21.0,-922.0,0,-1,1,-3.8199262619018555,-1.207718849182129,7.339942216873169
1761038907.8645744,-15.0,17.0,-926.0,0,-1,1,-3.8199262619018555,-1.308518648147583,7.440742015838623
1761038907.9647493,-15.0,17.0,-926.0,0,-1,1,-3.8199262619018555,-1.408693552017212,7.540916919708252
1761038908.065471,0.0,25.0,-985.0,0,-1,0,-3.8199262619018555,-1.5094151496887207,7.540916919708252
1761038908.1658766,-29.0,20.0,-915.0,0,-1,0,-3.8199262619018555,-1.60982084274292,7.540916919708252
1761038908.2660894,-29.0,20.0,-915.0,0,-1,0,-3.8199262619018555,-1.710033655166626,7.540916919708252
1761038908.3663132,-41.0,22.0,-957.0,0,-1,0,-3.8199262619018555,-1.8102574348449707,7.540916919708252
1761038908.4668717,-27.0,-12.0,-962.0,0,-1,-1,-3.8199262619018555,-1.910815954208374,7.440358400344849
1761038908.567218,-33.0,8.0,-992.0,1,-1,-1,-3.7195799350738525,-2.011162281036377,7.340012073516846
1761038908.6675508,-11.0,23.0,-1013.0,0,-1,-1,-3.7195799350738525,-2.111495018005371,7.239679336547852
1761038908.7679908,13.0,12.0,-1038.0,0,-1,-1,-3.7195799350738525,-2.211935043334961,7.139239311218262
1761038908.8687654,-10.0,21.0,-1044.0,0,0,-1,-3.7195799350738525,-2.211935043334961,7.038464784622192
1761038908.9689744,-21.0,-9.0,-1030.0,1,0,0,-3.619370937347412,-2.211935043334961,7.038464784622192
1761038909.0694711,0.0,21.0,-1028.0,1,0,0,-3.518874168395996,-2.211935043334961,7.038464784622192
1761038909.1700056,-36.0,16.0,-1041.0,0,0,0,-3.518874168395996,-2.211935043334961,7.038464784622192
1761038909.2702408,-34.0,35.0,-981.0,0,-1,0,-3.518874168395996,-2.3121702671051025,7.038464784622192
1761038909.3710635,-33.0,-11.0,-1010.0,0,-1,1,-3.518874168395996,-2.4129929542541504,7.13928747177124
1761038909.4712982,-2.0,20.0,-1042.0,0,-1,1,-3.518874168395996,-2.513227701187134,7.239522218704224
1761038909.5723193,-18.0,-9.0,-968.0,0,-1,1,-3.518874168395996,-2.614248752593994,7.340543270111084
1761038909.6730263,-37.0,21.0,-918.0,0,-1,0,-3.518874168395996,-2.7149558067321777,7.340543270111084
1761038909.773802,0.0,16.0,-956.0,0,-1,0,-3.518874168395996,-2.8157315254211426,7.340543270111084
1761038909.874359,3.0,28.0,-1000.0,0,0,0,-3.518874168395996,-2.8157315254211426,7.340543270111084
1761038909.9747412,-23.0,5.0,-994.0,0,0,0,-3.518874168395996,-2.8157315254211426,7.340543270111084
1761038910.0751035,-19.0,3.0,-999.0,0,0,0,-3.518874168395996,-2.8157315254211426,7.340543270111084
1761038910.1757529,-41.0,27.0,-978.0,0,0,0,-3.518874168395996,-2.8157315254211426,7.340543270111084
1761038910.2764277,-34.0,11.0,-1031.0,0,0,0,-3.518874168395996,-2.8157315254211426,7.340543270111084
1761038910.3772824,-43.0,11.0,-1047.0,0,0,0,-3.518874168395996,-2.8157315254211426,7.340543270111084
1761038910.477685,-25.0,29.0,-982.0,0,0,0,-3.518874168395996,-2.8157315254211426,7.340543270111084
1761038910.5780003,-13.0,15.0,-1017.0,1,0,0,-3.4185588359832764,-2.8157315254211426,7.340543270111084
1761038910.6788456,-36.0,52.0,-1031.0,1,0,0,-3.317713499069214,-2.8157315254211426,7.340543270111084
1761038910.7794335,-8.0,-21.0,-996.0,1,0,0,-3.217125654220581,-2.8157315254211426,7.340543270111084
1761038910.8797982,-23.0,11.0,-992.0,1,0,0,-3.1167609691619873,-2.8157315254211426,7.340543270111084
1761038910.980235,-23.0,11.0,-992.0,1,0,0,-3.016324043273926,-2.8157315254211426,7.340543270111084
1761038911.080852,-7.0,-2.0,-980.0,1,0,0,-2.9157071113586426,-2.8157315254211426,7.340543270111084
1761038911.181434,-25.0,3.0,-945.0,1,0,0,-2.8151252269744873,-2.8157315254211426,7.340543270111084
1761038911.281922,-24.0,18.0,-969.0,1,0,0,-2.714637041091919,-2.8157315254211426,7.340543270111084
1761038911.3824933,-35.0,6.0,-963.0,1,0,0,-2.6140658855438232,-2.8157315254211426,7.340543270111084
1761038911.483284,5.0,15.0,-987.0,1,0,0,-2.513275146484375,-2.8157315254211426,7.340543270111084
1761038911.5835974,-25.0,10.0,-995.0,1,0,0,-2.412961721420288,-2.8157315254211426,7.340543270111084
1761038911.684366,-25.0,10.0,-995.0,1,0,0,-2.3121931552886963,-2.8157315254211426,7.340543270111084
1761038911.785312,-5.0,25.0,-1019.0,1,0,0,-2.211247205734253,-2.8157315254211426,7.340543270111084
1761038911.8861146,-1.0,12.0,-1026.0,1,0,0,-2.1104445457458496,-2.8157315254211426,7.340543270111084
1761038911.9863906,-7.0,16.0,-1022.0,1,0,0,-2.0101685523986816,-2.8157315254211426,7.340543270111084
1761038912.0871572,0.0,18.0,-1025.0,1,0,0,-1.9094018936157227,-2.8157315254211426,7.340543270111084
1761038912.18776,-4.0,5.0,-1007.0,1,0,0,-1.8087990283966064,-2.8157315254211426,7.340543270111084
1761038912.2881036,-14.0,26.0,-1025.0,1,0,0,-1.7084555625915527,-2.8157315254211426,7.340543270111084
1761038912.3888984,-23.0,3.0,-1000.0,1,0,0,-1.6076607704162598,-2.8157315254211426,7.340543270111084
1761038912.489322,-16.0,6.0,-1020.0,1,0,0,-1.507237195968628,-2.8157315254211426,7.340543270111084
1761038912.590016,0.0,11.0,-1025.0,1,0,0,-1.406543254852295,-2.8157315254211426,7.340543270111084
1761038912.6908598,-47.0,10.0,-1029.0,1,0,0,-1.305699348449707,-2.8157315254211426,7.340543270111084
1761038912.7912624,-16.0,20.0,-982.0,1,0,0,-1.2052967548370361,-2.8157315254211426,7.340543270111084
1761038912.891563,-38.0,27.0,-990.0,0,0,0,-1.2052967548370361,-2.8157315254211426,7.340543270111084
1761038912.9922843,0.0,-4.0,-987.0,0,0,0,-1.2052967548370361,-2.8157315254211426,7.340543270111084
1761038913.092678,-22.0,24.0,-967.0,0,0,0,-1.2052967548370361,-2.8157315254211426,7.340543270111084
1761038913.1936038,0.0,9.0,-965.0,1,0,0,-1.1043710708618164,-2.8157315254211426,7.340543270111084
1761038913.2942946,16.0,6.0,-1011.0,1,0,0,-1.0036802291870117,-2.8157315254211426,7.340543270111084
1761038913.3949397,-22.0,19.0,-995.0,1,0,0,-0.9030351638793945,-2.8157315254211426,7.340543270111084
1761038913.4956331,-8.0,-14.0,-993.0,1,0,0,-0.8023416996002197,-2.8157315254211426,7.340543270111084
1761038913.5959854,-10.0,-4.0,-1009.0,1,0,0,-0.7019894123077393,-2.8157315254211426,7.340543270111084
1761038913.6962795,-6.0,-2.0,-994.0,1,0,0,-0.6016952991485596,-2.8157315254211426,7.340543270111084
1761038913.7968187,-13.0,24.0,-1012.0,1,0,0,-0.5011560916900635,-2.8157315254211426,7.340543270111084
1761038913.8974824,-7.0,25.0,-1001.0,1,0,0,-0.40049242973327637,-2.8157315254211426,7.340543270111084
1761038913.9981635,-7.0,25.0,-1001.0,1,0,0,-0.29981136322021484,-2.8157315254211426,7.340543270111084
1761038914.0986419,5.0,6.0,-1012.0,1,0,0,-0.19933295249938965,-2.8157315254211426,7.340543270111084
1761038914.1989064,0.0,25.0,-1030.0,1,0,0,-0.09906840324401855,-2.8157315254211426,7.340543270111084
1761038914.2993915,6.0,3.0,-1019.0,0,0,0,-0.09906840324401855,-2.8157315254211426,7.340543270111084
1761038914.3998392,-1.0,22.0,-1038.0,0,0,0,-0.09906840324401855,-2.8157315254211426,7.340543270111084
1761038914.500302,-10.0,8.0,-998.0,0,0,0,-0.09906840324401855,-2.8157315254211426,7.340543270111084
1761038914.600946,-19.0,22.0,-1008.0,0,0,0,-0.09906840324401855,-2.8157315254211426,7.340543270111084
1761038914.7015362,-28.0,29.0,-970.0,0,0,0,-0.09906840324401855,-2.8157315254211426,7.340543270111084
1761038914.8020852,-4.0,18.0,-985.0,0,0,0,-0.09906840324401855,-2.8157315254211426,7.340543270111084
1761038914.9023306,-3.0,12.0,-991.0,0,0,0,-0.09906840324401855,-2.8157315254211426,7.340543270111084
1761038915.0031946,9.0,9.0,-994.0,1,0,0,0.0017955303192138672,-2.8157315254211426,7.340543270111084
1761038915.103641,-6.0,22.0,-1015.0,1,0,0,0.10224199295043945,-2.8157315254211426,7.340543270111084
1761038915.20464,0.0,4.0,-988.0,1,0,0,0.20324087142944336,-2.8157315254211426,7.340543270111084
1761038915.3051,7.0,3.0,-980.0,1,0,0,0.30370092391967773,-2.8157315254211426,7.340543270111084
1761038915.4056156,7.0,3.0,-980.0,1,0,0,0.4042165279388428,-2.8157315254211426,7.340543270111084
1761038915.5060408,2.0,17.0,-1004.0,1,0,0,0.5046417713165283,-2.8157315254211426,7.340543270111084
1761038915.6069453,-31.0,33.0,-1000.0,1,0,0,0.605546236038208,-2.8157315254211426,7.340543270111084
1761038915.707337,-13.0,17.0,-1019.0,1,0,0,0.7059378623962402,-2.8157315254211426,7.340543270111084
1761038915.807777,21.0,14.0,-1015.0,0,0,0,0.7059378623962402,-2.8157315254211426,7.340543270111084
1761038915.9081192,14.0,21.0,-1015.0,0,0,0,0.7059378623962402,-2.8157315254211426,7.340543270111084
1761038916.0089023,1.0,28.0,-982.0,0,0,0,0.7059378623962402,-2.8157315254211426,7.340543270111084
1761038916.1093678,-11.0,9.0,-1019.0,1,0,0,0.806403398513794,-2.8157315254211426,7.340543270111084
1761038916.2101243,-3.0,44.0,-1010.0,1,0,0,0.9071598052978516,-2.8157315254211426,7.340543270111084
1761038916.3104649,7.0,18.0,-1060.0,1,0,0,1.007500410079956,-2.8157315254211426,7.340543270111084
1761038916.4107828,-36.0,24.0,-1015.0,1,0,0,1.107818365097046,-2.8157315254211426,7.340543270111084
1761038916.5115418,1.0,13.0,-1049.0,1,0,0,1.2085773944854736,-2.8157315254211426,7.340543270111084
1761038916.6122682,-14.0,30.0,-995.0,1,0,0,1.3093037605285645,-2.8157315254211426,7.340543270111084
1761038916.7127411,2.0,9.0,-1002.0,1,0,0,1.4097766876220703,-2.8157315254211426,7.340543270111084
1761038916.813409,-22.0,14.0,-963.0,1,0,0,1.5104446411132812,-2.8157315254211426,7.340543270111084
1761038916.9137118,-3.0,3.0,-973.0,1,0,0,1.6107473373413086,-2.8157315254211426,7.340543270111084
1761038917.0141046,-9.0,21.0,-990.0,1,0,0,1.7111401557922363,-2.8157315254211426,7.340543270111084
1761038917.1147902,18.0,8.0,-992.0,1,1,0,1.8118257522583008,-2.715045928955078,7.340543270111084
1761038917.214987,-5.0,13.0,-1006.0,1,1,0,1.912022590637207,-2.614849090576172,7.340543270111084
1761038917.3155053,-9.0,14.0,-980.0,0,1,0,1.912022590637207,-2.5143308639526367,7.340543270111084
1761038917.4158394,-24.0,7.0,-974.0,0,0,0,1.912022590637207,-2.5143308639526367,7.340543270111084
1761038917.5161777,-21.0,26.0,-1005.0,0,0,0,1.912022590637207,-2.5143308639526367,7.340543270111084
1761038917.6164448,-17.0,26.0,-1017.0,0,0,0,1.912022590637207,-2.5143308639526367,7.340543270111084
1761038917.716714,-15.0,2.0,-1033.0,0,0,0,1.912022590637207,-2.5143308639526367,7.340543270111084
1761038917.8168895,-20.0,18.0,-1000.0,0,0,0,1.912022590637207,-2.5143308639526367,7.340543270111084
1761038917.9177554,-25.0,28.0,-1045.0,0,0,0,1.912022590637207,-2.5143308639526367,7.340543270111084
1761038918.018006,-25.0,28.0,-1045.0,0,0,0,1.912022590637207,-2.5143308639526367,7.340543270111084
1761038918.1185298,1.0,0.0,-1008.0,0,0,0,1.912022590637207,-2.5143308639526367,7.340543270111084
1761038918.2193186,-18.0,4.0,-998.0,0,0,0,1.912022590637207,-2.5143308639526367,7.340543270111084
1761038918.319624,-8.0,-9.0,-1002.0,0,0,0,1.912022590637207,-2.5143308639526367,7.340543270111084
1761038918.4202335,16.0,2.0,-1005.0,0,0,0,1.912022590637207,-2.5143308639526367,7.340543270111084
1761038918.5208056,2.0,-17.0,-983.0,0,0,0,1.912022590637207,-2.5143308639526367,7.340543270111084
1761038918.621217,7.0,11.0,-1022.0,0,0,0,1.912022590637207,-2.5143308639526367,7.340543270111084
1761038918.7218263,-30.0,2.0,-988.0,0,0,0,1.912022590637207,-2.5143308639526367,7.340543270111084
1761038918.822312,-30.0,2.0,-988.0,0,0,0,1.912022590637207,-2.5143308639526367,7.340543270111084
1761038918.9227595,-10.0,8.0,-971.0,0,0,0,1.912022590637207,-2.5143308639526367,7.340543270111084
1761038919.023079,-8.0,4.0,-981.0,0,0,0,1.912022590637207,-2.5143308639526367,7.340543270111084
1761038919.1235182,-17.0,15.0,-1013.0,0,0,0,1.912022590637207,-2.5143308639526367,7.340543270111084
1761038919.2237797,0.0,8.0,-983.0,0,0,0,1.912022590637207,-2.5143308639526367,7.340543270111084
1761038919.3241673,0.0,12.0,-972.0,0,0,0,1.912022590637207,-2.5143308639526367,7.340543270111084
1761038919.424591,7.0,12.0,-1005.0,0,0,0,1.912022590637207,-2.5143308639526367,7.340543270111084
1761038919.5252166,-15.0,10.0,-1018.0,0,0,0,1.912022590637207,-2.5143308639526367,7.340543270111084
1761038919.6259406,-27.0,15.0,-986.0,0,0,0,1.912022590637207,-2.5143308639526367,7.340543270111084
1761038919.7263339,-21.0,17.0,-1002.0,0,0,0,1.912022590637207,-2.5143308639526367,7.340543270111084
1761038919.826951,-10.0,21.0,-1012.0,0,0,0,1.912022590637207,-2.5143308639526367,7.340543270111084
1761038919.9273152,-19.0,9.0,-1005.0,0,0,0,1.912022590637207,-2.5143308639526367,7.340543270111084
1761038920.0278826,-7.0,14.0,-1030.0,0,0,0,1.912022590637207,-2.5143308639526367,7.340543270111084
1761038920.1286092,8.0,8.0,-1038.0,0,0,0,1.912022590637207,-2.5143308639526367,7.340543270111084
1761038920.2292578,-21.0,26.0,-993.0,0,0,0,1.912022590637207,-2.5143308639526367,7.340543270111084
1761038920.329765,-26.0,8.0,-971.0,0,0,0,1.912022590637207,-2.5143308639526367,7.340543270111084
1761038920.4301114,-3.0,18.0,-1008.0,0,0,0,1.912022590637207,-2.5143308639526367,7.340543270111084
1761038920.530513,-4.0,7.0,-987.0,0,0,0,1.912022590637207,-2.5143308639526367,7.340543270111084
1761038920.6308196,-36.0,25.0,-1025.0,0,0,0,1.912022590637207,-2.5143308639526367,7.340543270111084
1761038920.731498,2.0,12.0,-1006.0,0,0,0,1.912022590637207,-2.5143308639526367,7.340543270111084
1761038920.8318474,-6.0,-2.0,-1002.0,0,0,0,1.912022590637207,-2.5143308639526367,7.340543270111084
1761038920.932257,-29.0,37.0,-970.0,0,0,0,1.912022590637207,-2.5143308639526367,7.340543270111084
1761038921.033354,13.0,13.0,-1040.0,0,0,0,1.912022590637207,-2.5143308639526367,7.340543270111084
1761038921.1340826,-23.0,7.0,-1001.0,0,0,0,1.912022590637207,-2.5143308639526367,7.340543270111084
1761038921.2342563,-19.0,31.0,-1000.0,0,0,0,1.912022590637207,-2.5143308639526367,7.340543270111084
1761038921.3346343,-8.0,2.0,-1025.0,0,0,0,1.912022590637207,-2.5143308639526367,7.340543270111084
1761038921.4350796,1.0,-3.0,-1009.0,0,0,0,1.912022590637207,-2.5143308639526367,7.340543270111084
1761038921.5360372,-11.0,28.0,-985.0,0,0,0,1.912022590637207,-2.5143308639526367,7.340543270111084
1761038921.6364949,-20.0,31.0,-977.0,0,0,0,1.912022590637207,-2.5143308639526367,7.340543270111084
1761038921.7367704,4.0,29.0,-1044.0,0,0,0,1.912022590637207,-2.5143308639526367,7.340543270111084
1761038921.837209,-51.0,22.0,-987.0,0,0,0,1.912022590637207,-2.5143308639526367,7.340543270111084
1761038921.938021,-30.0,21.0,-1028.0,0,0,0,1.912022590637207,-2.5143308639526367,7.340543270111084
1761038922.0385418,15.0,29.0,-1032.0,0,0,0,1.912022590637207,-2.5143308639526367,7.340543270111084
1761038922.1389778,15.0,29.0,-1032.0,0,0,0,1.912022590637207,-2.5143308639526367,7.340543270111084
1761038922.239695,15.0,24.0,-1039.0,0,0,0,1.912022590637207,-2.5143308639526367,7.340543270111084
1761038922.3400455,9.0,18.0,-1011.0,0,0,0,1.912022590637207,-2.5143308639526367,7.340543270111084
1761038922.4403265,-14.0,28.0,-990.0,0,0,0,1.912022590637207,-2.5143308639526367,7.340543270111084
1761038922.54077,-11.0,12.0,-953.0,0,0,0,1.912022590637207,-2.5143308639526367,7.340543270111084
1761038922.6415372,7.0,14.0,-1008.0,0,0,0,1.912022590637207,-2.5143308639526367,7.340543270111084
1761038922.741913,-35.0,5.0,-955.0,0,0,0,1.912022590637207,-2.5143308639526367,7.340543270111084
1761038922.8424666,-23.0,15.0,-977.0,0,0,0,1.912022590637207,-2.5143308639526367,7.340543270111084
1761038922.9427536,-5.0,51.0,-984.0,0,0,0,1.912022590637207,-2.5143308639526367,7.340543270111084
1761038923.0433087,10.0,31.0,-1007.0,0,0,0,1.912022590637207,-2.5143308639526367,7.340543270111084
1761038923.1439059,-5.0,4.0,-1014.0,0,0,0,1.912022590637207,-2.5143308639526367,7.340543270111084
1761038923.2444227,-42.0,27.0,-973.0,0,0,0,1.912022590637207,-2.5143308639526367,7.340543270111084
1761038923.3447604,-21.0,20.0,-1016.0,0,0,0,1.912022590637207,-2.5143308639526367,7.340543270111084
1761038923.445343,11.0,22.0,-1030.0,0,0,0,1.912022590637207,-2.5143308639526367,7.340543270111084
1761038923.5456698,-24.0,6.0,-1025.0,0,0,0,1.912022590637207,-2.5143308639526367,7.340543270111084
1761038923.646528,-8.0,23.0,-1026.0,0,0,0,1.912022590637207,-2.5143308639526367,7.340543270111084
1761038923.7470927,-18.0,21.0,-1006.0,0,0,0,1.912022590637207,-2.5143308639526367,7.340543270111084
1761038923.8477116,-25.0,-11.0,-1007.0,0,0,0,1.912022590637207,-2.5143308639526367,7.340543270111084
1761038923.9482276,34.0,35.0,-1049.0,0,0,0,1.912022590637207,-2.5143308639526367,7.340543270111084
1761038924.0487068,-31.0,9.0,-1012.0,0,0,0,1.912022590637207,-2.5143308639526367,7.340543270111084
1761038924.1491148,-7.0,9.0,-1032.0,0,0,0,1.912022590637207,-2.5143308639526367,7.340543270111084
1761038924.2498245,10.0,9.0,-1056.0,0,0,0,1.912022590637207,-2.5143308639526367,7.340543270111084
1761038924.3505082,-2.0,12.0,-1007.0,0,0,0,1.912022590637207,-2.5143308639526367,7.340543270111084
1761038924.4508293,5.0,4.0,-958.0,0,0,0,1.912022590637207,-2.5143308639526367,7.340543270111084
1761038924.551595,-33.0,28.0,-977.0,0,0,0,1.912022590637207,-2.5143308639526367,7.340543270111084
1761038924.651989,10.0,4.0,-1023.0,0,0,0,1.912022590637207,-2.5143308639526367,7.340543270111084
1761038924.7524498,-9.0,2.0,-1014.0,0,0,0,1.912022590637207,-2.5143308639526367,7.340543270111084
1761038924.8528774,13.0,-5.0,-1019.0,0,0,0,1.912022590637207,-2.5143308639526367,7.340543270111084
1761038924.9535944,10.0,7.0,-1019.0,0,0,0,1.912022590637207,-2.5143308639526367,7.340543270111084
1761038925.0540416,4.0,48.0,-983.0,0,0,0,1.912022590637207,-2.5143308639526367,7.340543270111084
1761038925.154503,15.0,10.0,-1045.0,0,0,0,1.912022590637207,-2.5143308639526367,7.340543270111084
1761038925.2547452,12.0,35.0,-1037.0,0,0,0,1.912022590637207,-2.5143308639526367,7.340543270111084
1761038925.3554444,0.0,20.0,-959.0,0,0,0,1.912022590637207,-2.5143308639526367,7.340543270111084
1761038925.4561572,5.0,5.0,-973.0,0,0,0,1.912022590637207,-2.5143308639526367,7.340543270111084
1761038925.5565228,-17.0,14.0,-980.0,0,0,0,1.912022590637207,-2.5143308639526367,7.340543270111084
1761038925.657166,-17.0,14.0,-980.0,0,0,0,1.912022590637207,-2.5143308639526367,7.340543270111084
1761038925.7575667,21.0,6.0,-987.0,0,0,0,1.912022590637207,-2.5143308639526367,7.340543270111084
1761038925.858453,7.0,20.0,-1008.0,0,0,0,1.912022590637207,-2.5143308639526367,7.340543270111084
1761038925.9590435,-2.0,27.0,-986.0,0,0,0,1.912022590637207,-2.5143308639526367,7.340543270111084
1761038926.0594792,0.0,15.0,-1022.0,0,0,0,1.912022590637207,-2.5143308639526367,7.340543270111084
1761038926.16003,-5.0,29.0,-954.0,0,0,0,1.912022590637207,-2.5143308639526367,7.340543270111084
1761038926.2605355,7.0,24.0,-963.0,0,0,0,1.912022590637207,-2.5143308639526367,7.340543270111084
1761038926.3612528,12.0,12.0,-952.0,0,0,0,1.912022590637207,-2.5143308639526367,7.340543270111084
1761038926.4615474,-13.0,11.0,-1038.0,0,0,0,1.912022590637207,-2.5143308639526367,7.340543270111084
1761038926.5619087,-9.0,-12.0,-958.0,0,0,0,1.912022590637207,-2.5143308639526367,7.340543270111084
1761038926.6623523,11.0,5.0,-1024.0,0,0,0,1.912022590637207,-2.5143308639526367,7.340543270111084
1761038926.7627237,1.0,-11.0,-1023.0,0,0,0,1.912022590637207,-2.5143308639526367,7.340543270111084
1761038926.8632412,20.0,31.0,-1022.0,0,0,0,1.912022590637207,-2.5143308639526367,7.340543270111084
1761038926.9639502,-5.0,-11.0,-1003.0,0,0,0,1.912022590637207,-2.5143308639526367,7.340543270111084
1761038927.0644178,10.0,19.0,-1004.0,0,0,0,1.912022590637207,-2.5143308639526367,7.340543270111084
1761038927.1647568,-5.0,3.0,-944.0,0,0,0,1.912022590637207,-2.5143308639526367,7.340543270111084
1761038927.265699,4.0,8.0,-960.0,0,0,0,1.912022590637207,-2.5143308639526367,7.340543270111084
1761038927.3664646,-23.0,-15.0,-1072.0,0,0,0,1.912022590637207,-2.5143308639526367,7.340543270111084
1761038927.467476,-16.0,2.0,-933.0,0,0,0,1.912022590637207,-2.5143308639526367,7.340543270111084
1761038927.5677893,-12.0,9.0,-970.0,0,0,0,1.912022590637207,-2.5143308639526367,7.340543270111084
1761038927.6682253,-1.0,-7.0,-1006.0,0,0,0,1.912022590637207,-2.5143308639526367,7.340543270111084
1761038927.7686942,-14.0,11.0,-950.0,0,0,-1,1.912022590637207,-2.5143308639526367,7.240074396133423
1761038927.8693264,21.0,5.0,-936.0,0,0,-1,1.912022590637207,-2.5143308639526367,7.139442205429077
1761038927.9699388,0.0,17.0,-980.0,0,0,-2,1.912022590637207,-2.5143308639526367,6.938217401504517
1761038928.070476,-7.0,8.0,-950.0,0,0,-3,1.912022590637207,-2.5143308639526367,6.636605501174927
1761038928.1712039,-14.0,12.0,-1009.0,0,0,-4,1.912022590637207,-2.5143308639526367,6.233694314956665
1761038928.2715778,-17.0,6.0,-1003.0,0,0,-4,1.912022590637207,-2.5143308639526367,5.83219838142395
1761038928.3720798,0.0,23.0,-1028.0,0,0,-5,1.912022590637207,-2.5143308639526367,5.329688310623169
1761038928.472781,-9.0,31.0,-1024.0,0,0,-5,1.912022590637207,-2.5143308639526367,4.826182842254639
1761038928.5732899,8.0,21.0,-982.0,0,0,-5,1.912022590637207,-2.5143308639526367,4.323638200759888
1761038928.6737325,2.0,38.0,-963.0,0,0,-5,1.912022590637207,-2.5143308639526367,3.821424961090088
1761038928.7744143,19.0,12.0,-1090.0,0,0,-5,1.912022590637207,-2.5143308639526367,3.3180160522460938
1761038928.8747287,-2.0,16.0,-1005.0,0,0,-5,1.912022590637207,-2.5143308639526367,2.816444158554077
1761038928.975208,-15.0,-8.0,-1038.0,0,0,-5,1.912022590637207,-2.5143308639526367,2.314047336578369
1761038929.0756454,-39.0,10.0,-1050.0,0,0,-5,1.912022590637207,-2.5143308639526367,1.8118603229522705
1761038929.1759813,-18.0,-29.0,-985.0,0,0,-4,1.912022590637207,-2.5143308639526367,1.4105169773101807
1761038929.2762537,-18.0,-29.0,-985.0,0,0,-4,1.912022590637207,-2.5143308639526367,1.0094273090362549
1761038929.3768551,-25.0,4.0,-990.0,0,0,-4,1.912022590637207,-2.5143308639526367,0.6070215702056885
1761038929.4772866,-26.0,3.0,-1068.0,0,0,-4,1.912022590637207,-2.5143308639526367,0.20529580116271973
1761038929.5778852,-49.0,27.0,-1052.0,0,0,-3,1.912022590637207,-2.5143308639526367,-0.09649991989135742
1761038929.6783543,-51.0,-41.0,-1101.0,0,0,-3,1.912022590637207,-2.5143308639526367,-0.3979072570800781
1761038929.7790496,-39.0,-21.0,-1108.0,0,0,-2,1.912022590637207,-2.5143308639526367,-0.5992980003356934
1761038929.879483,-109.0,-20.0,-1257.0,0,0,0,1.912022590637207,-2.5143308639526367,-0.5992980003356934
1761038929.9802706,11.0,-13.0,-913.0,0,0,0,1.912022590637207,-2.5143308639526367,-0.5992980003356934
1761038930.0807571,-61.0,-8.0,-986.0,0,0,0,1.912022590637207,-2.5143308639526367,-0.5992980003356934
1761038930.1813414,83.0,81.0,-991.0,0,0,0,1.912022590637207,-2.5143308639526367,-0.5992980003356934
1761038930.2816405,30.0,16.0,-986.0,0,0,0,1.912022590637207,-2.5143308639526367,-0.5992980003356934
1761038930.3820608,28.0,7.0,-998.0,0,0,0,1.912022590637207,-2.5143308639526367,-0.5992980003356934
1761038930.4823391,72.0,-5.0,-1004.0,0,0,0,1.912022590637207,-2.5143308639526367,-0.5992980003356934
1761038930.5825753,41.0,16.0,-992.0,0,0,0,1.912022590637207,-2.5143308639526367,-0.5992980003356934
1761038930.6831477,36.0,0.0,-1002.0,0,0,0,1.912022590637207,-2.5143308639526367,-0.5992980003356934
1761038930.783978,70.0,-14.0,-1009.0,0,0,0,1.912022590637207,-2.5143308639526367,-0.5992980003356934
1761038930.8846474,74.0,-14.0,-997.0,0,0,0,1.912022590637207,-2.5143308639526367,-0.5992980003356934
1761038930.9848807,47.0,6.0,-1000.0,0,0,0,1.912022590637207,-2.5143308639526367,-0.5992980003356934
1761038931.08547,57.0,-5.0,-999.0,0,0,0,1.912022590637207,-2.5143308639526367,-0.5992980003356934
1761038931.1861448,61.0,1.0,-1006.0,0,0,0,1.912022590637207,-2.5143308639526367,-0.5992980003356934
1761038931.2868407,61.0,1.0,-1006.0,0,0,0,1.912022590637207,-2.5143308639526367,-0.5992980003356934
1761038931.3874333,61.0,-5.0,-1007.0,0,0,1,1.912022590637207,-2.5143308639526367,-0.4987053871154785
1761038931.4876826,38.0,2.0,-1000.0,0,0,1,1.912022590637207,-2.5143308639526367,-0.3984560966491699
1761038931.5878482,38.0,2.0,-1000.0,0,0,1,1.912022590637207,-2.5143308639526367,-0.298290491104126
1761038931.6886833,61.0,-3.0,-1008.0,0,0,1,1.912022590637207,-2.5143308639526367,-0.19745540618896484
1761038931.7891273,52.0,-2.0,-1002.0,0,0,1,1.912022590637207,-2.5143308639526367,-0.09701132774353027
1761038931.8895996,54.0,5.0,-997.0,0,0,2,1.912022590637207,-2.5143308639526367,0.10393309593200684
1761038931.990333,54.0,5.0,-997.0,0,0,2,1.912022590637207,-2.5143308639526367,0.30540013313293457
1761038932.090916,54.0,5.0,-997.0,0,0,2,1.912022590637207,-2.5143308639526367,0.5065658092498779
1761038932.1914604,61.0,-5.0,-1006.0,0,0,2,1.912022590637207,-2.5143308639526367,0.7076547145843506
1761038932.29191,45.0,4.0,-1000.0,0,0,2,1.912022590637207,-2.5143308639526367,0.9085538387298584
1761038932.3925445,59.0,-1.0,-1004.0,0,0,2,1.912022590637207,-2.5143308639526367,1.1098229885101318
1761038932.4927263,49.0,3.0,-1005.0,0,0,2,1.912022590637207,-2.5143308639526367,1.3101866245269775
1761038932.5931158,49.0,3.0,-1005.0,0,0,2,1.912022590637207,-2.5143308639526367,1.5109655857086182
1761038932.6935852,56.0,0.0,-1004.0,0,0,2,1.912022590637207,-2.5143308639526367,1.7119042873382568
1761038932.793841,53.0,-1.0,-1003.0,0,0,3,1.912022590637207,-2.5143308639526367,2.01267147064209
1761038932.8945227,57.0,1.0,-1004.0,0,0,3,1.912022590637207,-2.5143308639526367,2.3147168159484863
1761038932.9953868,58.0,-1.0,-1005.0,0,0,3,1.912022590637207,-2.5143308639526367,2.617309331893921
1761038933.0957909,57.0,-2.0,-1007.0,0,0,3,1.912022590637207,-2.5143308639526367,2.9185214042663574
1761038933.1964192,56.0,-2.0,-1006.0,0,0,3,1.912022590637207,-2.5143308639526367,3.2204065322875977
1761038933.2970698,56.0,1.0,-1003.0,0,0,3,1.912022590637207,-2.5143308639526367,3.5223581790924072
1761038933.3978124,57.0,-4.0,-1004.0,0,0,3,1.912022590637207,-2.5143308639526367,3.8245859146118164
1761038933.4980986,56.0,-6.0,-1005.0,0,0,3,1.912022590637207,-2.5143308639526367,4.125444650650024
1761038933.5986154,56.0,-3.0,-1005.0,0,0,3,1.912022590637207,-2.5143308639526367,4.426995038986206
1761038933.6991615,56.0,-1.0,-1003.0,0,0,4,1.912022590637207,-2.5143308639526367,4.829179525375366
1761038933.799769,58.0,-1.0,-1008.0,0,0,4,1.912022590637207,-2.5143308639526367,5.231609106063843
1761038933.9002833,57.0,0.0,-1005.0,0,0,4,1.912022590637207,-2.5143308639526367,5.633666753768921
1761038934.0010784,55.0,-1.0,-1003.0,0,0,4,1.912022590637207,-2.5143308639526367,6.036846876144409
1761038934.1018097,55.0,-2.0,-1006.0,0,0,4,1.912022590637207,-2.5143308639526367,6.439772367477417
1761038934.202347,57.0,-2.0,-1007.0,0,0,4,1.912022590637207,-2.5143308639526367,6.84192156791687
1761038934.302763,57.0,-3.0,-1006.0,0,0,4,1.912022590637207,-2.5143308639526367,7.2435853481292725
1761038934.403261,55.0,0.0,-1006.0,0,0,4,1.912022590637207,-2.5143308639526367,7.6455771923065186
1761038934.5034583,54.0,1.0,-1004.0,0,0,4,1.912022590637207,-2.5143308639526367,8.046366453170776
1761038934.6039262,56.0,0.0,-1002.0,0,0,3,1.912022590637207,-2.5143308639526367,8.34777021408081
1761038934.7046518,57.0,-5.0,-1004.0,0,0,3,1.912022590637207,-2.5143308639526367,8.649947166442871
1761038934.8054607,54.0,0.0,-1006.0,0,0,3,1.912022590637207,-2.5143308639526367,8.952373743057251
1761038934.9060836,56.0,2.0,-1005.0,0,0,3,1.912022590637207,-2.5143308639526367,9.254242420196533
1761038935.006449,57.0,-6.0,-1008.0,0,0,3,1.912022590637207,-2.5143308639526367,9.555338621139526
1761038935.1070669,54.0,-1.0,-1003.0,0,0,3,1.912022590637207,-2.5143308639526367,9.857192277908325
1761038935.2075763,57.0,-2.0,-1001.0,0,0,3,1.912022590637207,-2.5143308639526367,10.15872049331665
1761038935.3086207,57.0,1.0,-1004.0,0,0,3,1.912022590637207,-2.5143308639526367,10.461853742599487
1761038935.4091613,54.0,1.0,-1003.0,0,0,3,1.912022590637207,-2.5143308639526367,10.7634756565094
1761038935.509907,55.0,-1.0,-1003.0,0,0,3,1.912022590637207,-2.5143308639526367,11.065712690353394
1761038935.6104617,56.0,-2.0,-1006.0,0,0,3,1.912022590637207,-2.5143308639526367,11.367376804351807
1761038935.7107558,56.0,0.0,-1004.0,0,0,3,1.912022590637207,-2.5143308639526367,11.668259143829346
1761038935.8111465,56.0,0.0,-1000.0,0,0,3,1.912022590637207,-2.5143308639526367,11.969431161880493
1761038935.9115186,58.0,-1.0,-1006.0,0,0,3,1.912022590637207,-2.5143308639526367,12.27054738998413
1761038936.0123444,58.0,-6.0,-1001.0,0,0,3,1.912022590637207,-2.5143308639526367,12.57302474975586
1761038936.1128047,54.0,0.0,-1006.0,0,0,3,1.912022590637207,-2.5143308639526367,12.8744056224823
1761038936.213561,55.0,0.0,-1002.0,0,0,3,1.912022590637207,-2.5143308639526367,13.176674842834473
1761038936.3139021,55.0,0.0,-1002.0,0,0,3,1.912022590637207,-2.5143308639526367,13.47769808769226
1761038936.4143465,56.0,1.0,-1002.0,0,0,3,1.912022590637207,-2.5143308639526367,13.779031038284302
1761038936.514623,57.0,-4.0,-1000.0,0,0,2,1.912022590637207,-2.5143308639526367,13.979583978652954
1761038936.6149633,56.0,-3.0,-1003.0,0,0,2,1.912022590637207,-2.5143308639526367,14.180264711380005
1761038936.715242,58.0,-5.0,-1003.0,0,0,2,1.912022590637207,-2.5143308639526367,14.380821943283081
1761038936.8155062,56.0,-3.0,-1001.0,0,0,2,1.912022590637207,-2.5143308639526367,14.581350564956665
1761038936.915924,55.0,0.0,-1001.0,0,0,2,1.912022590637207,-2.5143308639526367,14.782186269760132
1761038937.016572,56.0,0.0,-1001.0,0,0,2,1.912022590637207,-2.5143308639526367,14.983482122421265
1761038937.1169426,56.0,-5.0,-1002.0,0,0,2,1.912022590637207,-2.5143308639526367,15.184223413467407
1761038937.2175436,55.0,0.0,-1002.0,0,0,2,1.912022590637207,-2.5143308639526367,15.385425329208374
1761038937.3181345,53.0,0.0,-1002.0,0,0,2,1.912022590637207,-2.5143308639526367,15.586607217788696
1761038937.4185858,55.0,1.0,-1006.0,0,0,2,1.912022590637207,-2.5143308639526367,15.787509679794312
1761038937.5189028,57.0,0.0,-999.0,0,0,2,1.912022590637207,-2.5143308639526367,15.988143682479858
1761038937.6190562,54.0,-2.0,-1001.0,0,0,2,1.912022590637207,-2.5143308639526367,16.188450574874878
1761038937.7193358,56.0,-3.0,-1003.0,0,0,2,1.912022590637207,-2.5143308639526367,16.389009714126587
1761038937.8195512,57.0,0.0,-1005.0,0,0,2,1.912022590637207,-2.5143308639526367,16.58944058418274
1761038937.9201984,56.0,-5.0,-998.0,0,0,2,1.912022590637207,-2.5143308639526367,16.790735006332397
1761038938.020436,56.0,-7.0,-997.0,0,0,2,1.912022590637207,-2.5143308639526367,16.991210222244263
1761038938.1207995,56.0,-7.0,-997.0,0,0,2,1.912022590637207,-2.5143308639526367,17.19193720817566
1761038938.2210422,59.0,-4.0,-1000.0,0,0,1,1.912022590637207,-2.5143308639526367,17.292179822921753
1761038938.3216248,57.0,-5.0,-1000.0,0,0,1,1.912022590637207,-2.5143308639526367,17.392762422561646
1761038938.4220998,55.0,0.0,-999.0,0,0,0,1.912022590637207,-2.5143308639526367,17.392762422561646
1761038938.5225973,54.0,-2.0,-1000.0,0,0,0,1.912022590637207,-2.5143308639526367,17.392762422561646
1761038938.6227999,56.0,-1.0,-1000.0,0,0,0,1.912022590637207,-2.5143308639526367,17.392762422561646
1761038938.7235415,54.0,0.0,-999.0,0,0,0,1.912022590637207,-2.5143308639526367,17.392762422561646
1761038938.8243015,57.0,-2.0,-998.0,0,0,0,1.912022590637207,-2.5143308639526367,17.392762422561646
1761038938.9247458,56.0,-1.0,-998.0,0,0,0,1.912022590637207,-2.5143308639526367,17.392762422561646
1761038939.0252635,55.0,-3.0,-997.0,0,0,0,1.912022590637207,-2.5143308639526367,17.392762422561646
1761038939.1256475,58.0,-1.0,-998.0,0,0,0,1.912022590637207,-2.5143308639526367,17.392762422561646
1761038939.2265468,57.0,-1.0,-999.0,0,0,0,1.912022590637207,-2.5143308639526367,17.392762422561646
1761038939.3272781,56.0,-1.0,-998.0,0,0,0,1.912022590637207,-2.5143308639526367,17.392762422561646
1761038939.42778,56.0,0.0,-998.0,0,0,0,1.912022590637207,-2.5143308639526367,17.392762422561646
1761038939.5284598,56.0,0.0,-998.0,0,0,0,1.912022590637207,-2.5143308639526367,17.392762422561646
1761038939.6288853,56.0,0.0,-999.0,0,0,0,1.912022590637207,-2.5143308639526367,17.392762422561646
1761038939.729626,55.0,-1.0,-999.0,0,0,0,1.912022590637207,-2.5143308639526367,17.392762422561646
1761038939.830179,56.0,-2.0,-999.0,0,0,0,1.912022590637207,-2.5143308639526367,17.392762422561646
1761038939.93058,55.0,0.0,-998.0,0,0,0,1.912022590637207,-2.5143308639526367,17.392762422561646
1761038940.0307517,58.0,0.0,-996.0,0,0,0,1.912022590637207,-2.5143308639526367,17.392762422561646
1761038940.1311672,56.0,-2.0,-1001.0,0,0,0,1.912022590637207,-2.5143308639526367,17.392762422561646
1761038940.2317529,54.0,-1.0,-1001.0,0,0,0,1.912022590637207,-2.5143308639526367,17.392762422561646
